url,meta,sender,sender_type,sender_id,ended_on,duration,time_run,time_render,time_show,time_end,time_commit,timestamp,time_switch,openLabId,type,task,project,status,code,confirmationCode,age,gender,english,education,country,textLLM,switch,textHuman,response,response_action,,creative_humor,accept_plot,negative_diversity,original_human,accept_dialogue,creative_story,creative_characters,negative_audience,accept_edit,better_llm,negative_writers,accept_script,diminish_originality
[object Object],"{""labjs_version"":""20.2.4"",""labjs_build"":{""flavor"":""production"",""commit"":""f5b4a49f956347addd546a832a3327688c2c0fef""},""location"":""https://open-lab.online/test/manuscript-study-5/6929f5aea99d9e200d04aabf?fbclid=IwY2xjawOW1PhleHRuA2FlbQIxMQBzcnRjBmFwcF9pZAEwAAEeB8HKUR8ezN6ObT4iF4dVK13t9fvRCuX8mFqJvsee_-zblOfVXKTnIXr5htg_aem_1DfR8muzbSiNQTrHDiNKqQ"",""userAgent"":""Mozilla/5.0 (Macintosh; Intel Mac OS X 10_15_7) AppleWebKit/537.36 (KHTML, like Gecko) Chrome/142.0.0.0 Safari/537.36"",""platform"":""MacIntel"",""language"":""da-DK"",""locale"":""en-GB"",""timeZone"":""Europe/Copenhagen"",""timezoneOffset"":-60,""screen_width"":1440,""screen_height"":900,""scroll_width"":1440,""scroll_height"":730,""window_innerWidth"":1440,""window_innerHeight"":778,""devicePixelRatio"":2}",Welcome,html.Page,0,form submission,3349.3,1130.2999999970198,1130.6,1147.2,4496.5,4497,2025-11-28T19:19:14.320Z,4497.3,UXfuQC_Hvq,full,manuscript-study-5,69299244a99d9e200d04a72a,participant,hcpib6bxmij8xe8n,609175,,,,,,,,,,,,,,,,,,,,,,,,
,,Personal information,html.Page,1,form submission,25883.99999999702,4497.29999999702,4497.162,4497.3,30381.29999999702,30381.59999999404,2025-11-28T19:19:40.204Z,30397.5,UXfuQC_Hvq,full,manuscript-study-5,69299244a99d9e200d04a72a,participant,hcpib6bxmij8xe8n,,26,male,yes,bachelor,Denmark,,,,,,,,,,,,,,,,,,,
,,"Derry Girls check ",html.Page,2,form submission,6532.5,30381.89999999106,30381.188,30397.5,36930,36930.59999999404,2025-11-28T19:19:46.753Z,36931.328,UXfuQC_Hvq,full,manuscript-study-5,69299244a99d9e200d04a72a,participant,hcpib6bxmij8xe8n,,,,,,,,,,,,,,,,,,,,,,,,,
,,Explanation Text,html.Page,3,form submission,15084.071999991058,36930.89999999106,36931.328,36931.328,52015.39999999106,52015.79999999702,2025-11-28T19:20:01.837Z,52014.94,UXfuQC_Hvq,full,manuscript-study-5,69299244a99d9e200d04a72a,participant,hcpib6bxmij8xe8n,,,,,,,,,,,,,,,,,,,,,,,,,
,,Showing scenes,html.Page,4_0_0,response,112468.65999999404,52016,52014.94,52014.94,164483.59999999404,164493.79999999702,2025-11-28T19:21:54.311Z,164517.1,UXfuQC_Hvq,full,manuscript-study-5,69299244a99d9e200d04a72a,participant,hcpib6bxmij8xe8n,,,,,,,"[In Erin’s bedroom. Erin is putting on a dress. Orla is doing her hair. Clare peeks in.]<br> Clare: Erin, you really think you should wear *that* to a boy’s party?<br> Erin: Better than looking like a blowfish, Clare. (frowns at her dress in the mirror)<br> James: (from the doorway) Confidence, Erin! Be bold like a hawk, not stiff like a blowfish.<br> Orla: Ew, James. Nobody wants to be a blowfish.<br> Erin: I’m not sure I want to go, though. A boy’s party sounds… weird.<br> Michelle: Weird? Erin, boy’s party = opportunity. Opportunity to be *sexy*. (strikes a pose)<br> Erin: Sexy? Mum, I’m thirteen. If I try to be sexy, I'll look ridiculous.<br> Michelle: Ridiculous sells, sweetheart. Sometimes ridiculous is the look.<br> Clare: Look, just be yourself. Unless you’re a blowfish. Then pick a look.<br> Orla: And if you're going to be sexy, wear red. Red distracts the eye from bad dancing.<br> James: (rolls his eyes) Are we styling Erin or sending her to battle?<br> Erin: I just don’t want to regret it later. What if I spill something everywhere?<br> Michelle: Spill? Then you’ll clean it up, or someone else will.<br> Jon: (knocks and enters) Hey, girls. You're all ready?<br> Erin: I think so. Or I’m somewhere between sexy and sensible.<br> Jon: That’s perfect. No one notices sensible anyway, Erin. Go with the sexy.<br> James: See? Jon gets it. Confidence, eye contact, smile. Not blowfish.<br> Erin: (sighs) Fine. Eye contact. Smile. And maybe red lips.<br> Orla: Don’t let any boys see your diary tonight either. That’s reserved for your enemies.<br> Clare: Enemy? Who needs enemies when you’ve got siblings?<br> James: Erin, promise me one thing—you’ll dance even if it feels silly.<br> Erin: Promise. (takes a deep breath, fixes her dress) Let’s go make a memory, not a mannequin.<br> Michelle: That’s my girl. Now—smart phone... red lips... strut out that door!",true,"[Night time. Michelle, Erin, Clare, James and Orla sneak out of their room in their pyjamas.]<br> ERIN: I'm not sure about this.<br> MICHELLE: I knew you'd fanny out!<br> ERIN: These lads have moves. You said so yourself, Michelle. And I haven't got any moves!<br> (They walk up the stairs.)<br> MICHELLE: Look, let's just get in there, have a few drinks, and just loosen up a bit.<br> CLARE: No! No loosening up! I don't like it!<br> JAMES: Just be confident, Erin. Boys like that.<br> MICHELLE: How the fuck would you know what boys like?<br> JAMES: Cause I'm a boy, Michelle. I'm a real live boy.<br> ORLA: Aw, yeah, like Pinocchio.<br> (They reach the boys' door.)<br> MICHELLE: (touching Erin's hair) Listen be sexy, okay?<br> ERIN: Sexy, right.<br> (Erin leans against the wall and pouts.)<br> MICHELLE: I said be sexy, not be a fucking blowfish, Erin.<br> (Erin looks offended and tries to be sexy again. Michelle knocks.)<br> (Jon opens the door, looking confused.)<br> JAMES: Hello, mate.<br> MICHELLE: We heard you boys are having a party.<br> JON: No?<br> MICHELLE: Well yous are now.<br> (They all walk into the room. Orla stares at Jon close to his face. He looks scared.)<br>",left,keypress(a),,,,,,,,,,,,,,
,,interval,canvas.Screen,4_0_1,response,1906.3999999999942,164494,164500.36,164517.1,166423.5,166430.19999998808,2025-11-28T19:21:56.247Z,166450.4,UXfuQC_Hvq,full,manuscript-study-5,69299244a99d9e200d04a72a,participant,hcpib6bxmij8xe8n,,,,,,,"[In Erin’s bedroom. Erin is putting on a dress. Orla is doing her hair. Clare peeks in.]<br> Clare: Erin, you really think you should wear *that* to a boy’s party?<br> Erin: Better than looking like a blowfish, Clare. (frowns at her dress in the mirror)<br> James: (from the doorway) Confidence, Erin! Be bold like a hawk, not stiff like a blowfish.<br> Orla: Ew, James. Nobody wants to be a blowfish.<br> Erin: I’m not sure I want to go, though. A boy’s party sounds… weird.<br> Michelle: Weird? Erin, boy’s party = opportunity. Opportunity to be *sexy*. (strikes a pose)<br> Erin: Sexy? Mum, I’m thirteen. If I try to be sexy, I'll look ridiculous.<br> Michelle: Ridiculous sells, sweetheart. Sometimes ridiculous is the look.<br> Clare: Look, just be yourself. Unless you’re a blowfish. Then pick a look.<br> Orla: And if you're going to be sexy, wear red. Red distracts the eye from bad dancing.<br> James: (rolls his eyes) Are we styling Erin or sending her to battle?<br> Erin: I just don’t want to regret it later. What if I spill something everywhere?<br> Michelle: Spill? Then you’ll clean it up, or someone else will.<br> Jon: (knocks and enters) Hey, girls. You're all ready?<br> Erin: I think so. Or I’m somewhere between sexy and sensible.<br> Jon: That’s perfect. No one notices sensible anyway, Erin. Go with the sexy.<br> James: See? Jon gets it. Confidence, eye contact, smile. Not blowfish.<br> Erin: (sighs) Fine. Eye contact. Smile. And maybe red lips.<br> Orla: Don’t let any boys see your diary tonight either. That’s reserved for your enemies.<br> Clare: Enemy? Who needs enemies when you’ve got siblings?<br> James: Erin, promise me one thing—you’ll dance even if it feels silly.<br> Erin: Promise. (takes a deep breath, fixes her dress) Let’s go make a memory, not a mannequin.<br> Michelle: That’s my girl. Now—smart phone... red lips... strut out that door!",,"[Night time. Michelle, Erin, Clare, James and Orla sneak out of their room in their pyjamas.]<br> ERIN: I'm not sure about this.<br> MICHELLE: I knew you'd fanny out!<br> ERIN: These lads have moves. You said so yourself, Michelle. And I haven't got any moves!<br> (They walk up the stairs.)<br> MICHELLE: Look, let's just get in there, have a few drinks, and just loosen up a bit.<br> CLARE: No! No loosening up! I don't like it!<br> JAMES: Just be confident, Erin. Boys like that.<br> MICHELLE: How the fuck would you know what boys like?<br> JAMES: Cause I'm a boy, Michelle. I'm a real live boy.<br> ORLA: Aw, yeah, like Pinocchio.<br> (They reach the boys' door.)<br> MICHELLE: (touching Erin's hair) Listen be sexy, okay?<br> ERIN: Sexy, right.<br> (Erin leans against the wall and pouts.)<br> MICHELLE: I said be sexy, not be a fucking blowfish, Erin.<br> (Erin looks offended and tries to be sexy again. Michelle knocks.)<br> (Jon opens the door, looking confused.)<br> JAMES: Hello, mate.<br> MICHELLE: We heard you boys are having a party.<br> JON: No?<br> MICHELLE: Well yous are now.<br> (They all walk into the room. Orla stares at Jon close to his face. He looks scared.)<br>",,keypress,,,,,,,,,,,,,,
,,trial,flow.Sequence,4_0,completion,114408.56,52016,52014.94,52014.94,166423.5,166430.69999998808,2025-11-28T19:21:56.248Z,166450.4,UXfuQC_Hvq,full,manuscript-study-5,69299244a99d9e200d04a72a,participant,hcpib6bxmij8xe8n,,,,,,,"[In Erin’s bedroom. Erin is putting on a dress. Orla is doing her hair. Clare peeks in.]<br> Clare: Erin, you really think you should wear *that* to a boy’s party?<br> Erin: Better than looking like a blowfish, Clare. (frowns at her dress in the mirror)<br> James: (from the doorway) Confidence, Erin! Be bold like a hawk, not stiff like a blowfish.<br> Orla: Ew, James. Nobody wants to be a blowfish.<br> Erin: I’m not sure I want to go, though. A boy’s party sounds… weird.<br> Michelle: Weird? Erin, boy’s party = opportunity. Opportunity to be *sexy*. (strikes a pose)<br> Erin: Sexy? Mum, I’m thirteen. If I try to be sexy, I'll look ridiculous.<br> Michelle: Ridiculous sells, sweetheart. Sometimes ridiculous is the look.<br> Clare: Look, just be yourself. Unless you’re a blowfish. Then pick a look.<br> Orla: And if you're going to be sexy, wear red. Red distracts the eye from bad dancing.<br> James: (rolls his eyes) Are we styling Erin or sending her to battle?<br> Erin: I just don’t want to regret it later. What if I spill something everywhere?<br> Michelle: Spill? Then you’ll clean it up, or someone else will.<br> Jon: (knocks and enters) Hey, girls. You're all ready?<br> Erin: I think so. Or I’m somewhere between sexy and sensible.<br> Jon: That’s perfect. No one notices sensible anyway, Erin. Go with the sexy.<br> James: See? Jon gets it. Confidence, eye contact, smile. Not blowfish.<br> Erin: (sighs) Fine. Eye contact. Smile. And maybe red lips.<br> Orla: Don’t let any boys see your diary tonight either. That’s reserved for your enemies.<br> Clare: Enemy? Who needs enemies when you’ve got siblings?<br> James: Erin, promise me one thing—you’ll dance even if it feels silly.<br> Erin: Promise. (takes a deep breath, fixes her dress) Let’s go make a memory, not a mannequin.<br> Michelle: That’s my girl. Now—smart phone... red lips... strut out that door!",,"[Night time. Michelle, Erin, Clare, James and Orla sneak out of their room in their pyjamas.]<br> ERIN: I'm not sure about this.<br> MICHELLE: I knew you'd fanny out!<br> ERIN: These lads have moves. You said so yourself, Michelle. And I haven't got any moves!<br> (They walk up the stairs.)<br> MICHELLE: Look, let's just get in there, have a few drinks, and just loosen up a bit.<br> CLARE: No! No loosening up! I don't like it!<br> JAMES: Just be confident, Erin. Boys like that.<br> MICHELLE: How the fuck would you know what boys like?<br> JAMES: Cause I'm a boy, Michelle. I'm a real live boy.<br> ORLA: Aw, yeah, like Pinocchio.<br> (They reach the boys' door.)<br> MICHELLE: (touching Erin's hair) Listen be sexy, okay?<br> ERIN: Sexy, right.<br> (Erin leans against the wall and pouts.)<br> MICHELLE: I said be sexy, not be a fucking blowfish, Erin.<br> (Erin looks offended and tries to be sexy again. Michelle knocks.)<br> (Jon opens the door, looking confused.)<br> JAMES: Hello, mate.<br> MICHELLE: We heard you boys are having a party.<br> JON: No?<br> MICHELLE: Well yous are now.<br> (They all walk into the room. Orla stares at Jon close to his face. He looks scared.)<br>",,,,,,,,,,,,,,,,
,,Showing scenes,html.Page,4_1_0,response,112140.79999998808,166430.89999999106,166433.69,166450.4,278591.1999999881,278598.09999999404,2025-11-28T19:23:48.411Z,278619.1,UXfuQC_Hvq,full,manuscript-study-5,69299244a99d9e200d04a72a,participant,hcpib6bxmij8xe8n,,,,,,,"[In the Quinn living room. Mary is ironing Erin’s uniform. Orla is reading a parish bulletin.]<br> Mary: Erin, you’d best hurry—Mass starts in fifteen. Have you seen Bill?<br> Erin: Bill? He’s been gone all morning. I reckon he’s headed to chapel already.<br> Orla: (looking up) I heard something on the radio. The Clintons might be in Burt.<br> Mary: Saints preserve us. The Clintons in Burt is bad enough—what are they after now?<br> (Bill enters, looking bewildered. A taxi driver’s cap in hand.)<br> Erin: Where’ve you been? We thought you’d left for Mass.<br> Bill: I was picked up—Taxi from Burt. Dispatcher said they needed me at chapel.<br> Mary: What do you mean “they needed you”? For what part of the service?<br> Bill: I’m supposed to read a passage. Some request from the parish—they said they sent for someone dependable.<br> Orla: (sniffs) Dependable? More like someone handy to hang onto when the Clintons roll in.<br> Mary: Well, if the Clintons are coming, we’ll need to be on our best behaviour.<br> Bill: The dispatcher seemed nervous. Kept mentioning “feeling the air stiff” in Burt.<br> Erin: Air stiff? Sounds like trouble brewing—politics or otherwise.<br> Mary: Don’t you go mixing politics with the holy, Erin. Mass isn’t the place.<br> Orla: Yet they drag us into it all the same—crossfire comes in many garments.<br> Bill: Whatever they want, I’ll read the passage as asked. God alone knows my heart’s in the right place.<br> (They exit together toward the chapel. Mary murmurs nervously.)<br> Mary: May it be good, not scandalous.<br>",false,"[In the taxi rank.]<br> Granda Joe: Excuse me, son.<br> Man: Where to?<br> Granda Joe: We were just wondering, have you seen the Clintons knocking about around here?<br> Man: The Clintons?<br> Jim: We have reason to believe they're staying in this vicinity.<br> Man: What would the Clintons be doing in Burt?<br> (A man walks in.)<br> Man: Heading to the chapel, Bill?<br> Bill: Aye.<br> Man: (into mic) Anybody free to pick up Bill from base? Over. Anybody near base at all? Over.<br> Over radio: All right, back in five.<br> Man: Five minutes, Bill.<br> Bill: (nodding and smiling) Good.<br> Gerry: Now, Jim, would you be open to the following possibility at all, that it may not have been a CIA agent you were picking up on that transmitter of yours. That there is in fact a good chance it was a taxi dispatcher from Burt, ordering a car here to bring Bill to mass?<br> Jim: He did have a strong Donegal accent, now that you mention it.<br> Granda Joe: Jesus, Jim!",right,keypress(d),,,,,,,,,,,,,,
,,interval,canvas.Screen,4_1_1,response,1220.699999997043,278598.299999997,278602.566,278619.1,279839.799999997,279847.09999999404,2025-11-28T19:23:49.660Z,279869,UXfuQC_Hvq,full,manuscript-study-5,69299244a99d9e200d04a72a,participant,hcpib6bxmij8xe8n,,,,,,,"[In the Quinn living room. Mary is ironing Erin’s uniform. Orla is reading a parish bulletin.]<br> Mary: Erin, you’d best hurry—Mass starts in fifteen. Have you seen Bill?<br> Erin: Bill? He’s been gone all morning. I reckon he’s headed to chapel already.<br> Orla: (looking up) I heard something on the radio. The Clintons might be in Burt.<br> Mary: Saints preserve us. The Clintons in Burt is bad enough—what are they after now?<br> (Bill enters, looking bewildered. A taxi driver’s cap in hand.)<br> Erin: Where’ve you been? We thought you’d left for Mass.<br> Bill: I was picked up—Taxi from Burt. Dispatcher said they needed me at chapel.<br> Mary: What do you mean “they needed you”? For what part of the service?<br> Bill: I’m supposed to read a passage. Some request from the parish—they said they sent for someone dependable.<br> Orla: (sniffs) Dependable? More like someone handy to hang onto when the Clintons roll in.<br> Mary: Well, if the Clintons are coming, we’ll need to be on our best behaviour.<br> Bill: The dispatcher seemed nervous. Kept mentioning “feeling the air stiff” in Burt.<br> Erin: Air stiff? Sounds like trouble brewing—politics or otherwise.<br> Mary: Don’t you go mixing politics with the holy, Erin. Mass isn’t the place.<br> Orla: Yet they drag us into it all the same—crossfire comes in many garments.<br> Bill: Whatever they want, I’ll read the passage as asked. God alone knows my heart’s in the right place.<br> (They exit together toward the chapel. Mary murmurs nervously.)<br> Mary: May it be good, not scandalous.<br>",,"[In the taxi rank.]<br> Granda Joe: Excuse me, son.<br> Man: Where to?<br> Granda Joe: We were just wondering, have you seen the Clintons knocking about around here?<br> Man: The Clintons?<br> Jim: We have reason to believe they're staying in this vicinity.<br> Man: What would the Clintons be doing in Burt?<br> (A man walks in.)<br> Man: Heading to the chapel, Bill?<br> Bill: Aye.<br> Man: (into mic) Anybody free to pick up Bill from base? Over. Anybody near base at all? Over.<br> Over radio: All right, back in five.<br> Man: Five minutes, Bill.<br> Bill: (nodding and smiling) Good.<br> Gerry: Now, Jim, would you be open to the following possibility at all, that it may not have been a CIA agent you were picking up on that transmitter of yours. That there is in fact a good chance it was a taxi dispatcher from Burt, ordering a car here to bring Bill to mass?<br> Jim: He did have a strong Donegal accent, now that you mention it.<br> Granda Joe: Jesus, Jim!",,keypress,,,,,,,,,,,,,,
,,trial,flow.Sequence,4_1,completion,113389.39999999703,166430.79999999702,166433.69,166450.4,279839.799999997,279847.5,2025-11-28T19:23:49.660Z,279869,UXfuQC_Hvq,full,manuscript-study-5,69299244a99d9e200d04a72a,participant,hcpib6bxmij8xe8n,,,,,,,"[In the Quinn living room. Mary is ironing Erin’s uniform. Orla is reading a parish bulletin.]<br> Mary: Erin, you’d best hurry—Mass starts in fifteen. Have you seen Bill?<br> Erin: Bill? He’s been gone all morning. I reckon he’s headed to chapel already.<br> Orla: (looking up) I heard something on the radio. The Clintons might be in Burt.<br> Mary: Saints preserve us. The Clintons in Burt is bad enough—what are they after now?<br> (Bill enters, looking bewildered. A taxi driver’s cap in hand.)<br> Erin: Where’ve you been? We thought you’d left for Mass.<br> Bill: I was picked up—Taxi from Burt. Dispatcher said they needed me at chapel.<br> Mary: What do you mean “they needed you”? For what part of the service?<br> Bill: I’m supposed to read a passage. Some request from the parish—they said they sent for someone dependable.<br> Orla: (sniffs) Dependable? More like someone handy to hang onto when the Clintons roll in.<br> Mary: Well, if the Clintons are coming, we’ll need to be on our best behaviour.<br> Bill: The dispatcher seemed nervous. Kept mentioning “feeling the air stiff” in Burt.<br> Erin: Air stiff? Sounds like trouble brewing—politics or otherwise.<br> Mary: Don’t you go mixing politics with the holy, Erin. Mass isn’t the place.<br> Orla: Yet they drag us into it all the same—crossfire comes in many garments.<br> Bill: Whatever they want, I’ll read the passage as asked. God alone knows my heart’s in the right place.<br> (They exit together toward the chapel. Mary murmurs nervously.)<br> Mary: May it be good, not scandalous.<br>",,"[In the taxi rank.]<br> Granda Joe: Excuse me, son.<br> Man: Where to?<br> Granda Joe: We were just wondering, have you seen the Clintons knocking about around here?<br> Man: The Clintons?<br> Jim: We have reason to believe they're staying in this vicinity.<br> Man: What would the Clintons be doing in Burt?<br> (A man walks in.)<br> Man: Heading to the chapel, Bill?<br> Bill: Aye.<br> Man: (into mic) Anybody free to pick up Bill from base? Over. Anybody near base at all? Over.<br> Over radio: All right, back in five.<br> Man: Five minutes, Bill.<br> Bill: (nodding and smiling) Good.<br> Gerry: Now, Jim, would you be open to the following possibility at all, that it may not have been a CIA agent you were picking up on that transmitter of yours. That there is in fact a good chance it was a taxi dispatcher from Burt, ordering a car here to bring Bill to mass?<br> Jim: He did have a strong Donegal accent, now that you mention it.<br> Granda Joe: Jesus, Jim!",,,,,,,,,,,,,,,,
,,Showing scenes,html.Page,4_2_0,response,91891.69999998808,279847.59999999404,279835.8,279869,371760.6999999881,371772.59999999404,2025-11-28T19:25:21.596Z,371787.8,UXfuQC_Hvq,full,manuscript-study-5,69299244a99d9e200d04a72a,participant,hcpib6bxmij8xe8n,,,,,,,"[Scene: A dimly lit upstairs room. A covered body lies on a bed. On a small table beside it rest a pair of Mammy’s earrings, glittering. Mary and Sarah stand looking at them, tense.]<br> MARY: (softly) God, Sarah… those earrings—are they really hers?<br> SARAH: (eyes wide) Mammy’s, by the holy water. I recognised the clasp. Didn’t wear them since she got those at Feeney’s fair.<br> MARY: (swaying) But… what are they doing here, at this… scene? I mean… I shouldn’t be saying this— but it looks bad.<br> SARAH: Bad? It’s awful, Mary. If anyone sees those earrings—people’ll talk. This is not just grief now, it’s trouble.<br> MARY: (pacing) We need to put them somewhere safe. Bury them with her? No, that’ll raise questions.<br> SARAH: Hide them! Lock 'em in your jewellery box, or under the floorboards. Anywhere!<br> MARY: (hesitates) I'd hate to lose them. She’d kill me if she thought I misplaced them. After everything.<br> SARAH: Mammy’s sense of ‘losing’—you wouldn’t live through it. She’d have the heavens and earth turned inside out.<br> MARY: (stops pacing) Maybe… maybe we leave them with Sister Michael? She has no reason to lie about things.<br> SARAH: And what if she does? Then those earrings—Mammy’s beloved earrings—end up in some official report.<br> MARY: (kneels, picks up earrings) I can’t— I can’t leave them here, with this… this body.<br> SARAH: Don’t touch them too much, they’ll tarnish. Mammy loved them shining.<br> MARY: (places earrings back on table) Right. We’ll come back for them. Once no one's here. Once it’s safe.<br> SARAH: Safe? In this house? With the rumours flying? With Granda Joe talking to the neighbours?<br> MARY: (firmly) It’s the only chance we’ve got. Trust me, Sarah. I’ll look after them. Them earrings are Mammy’s pride.<br>",false,"[In the room with the dead body. Sarah and Mary stand over it.]<br> MARY: After all was said and done, she wasn't a bad oul soul. I was actually quite fond of her, you know. And I really hope she's up there now, looking down on us both, thinking What in under Christ?!<br> SARAH: Aye, me too, Mary.<br> MARY: No, Sarah. Look! The earrings. Look at the earrings!<br> SARAH: God, aye. I wouldn't have put a drop on her, now, she doesn't have enough neck. She'd have been better with a stud.<br> MARY: They're Mammy's. She's wearing Mammy's earrings!<br> SARAH: So they are! How did she get them?!<br> MARY: She probably swooped in like a vulture before Mammy drew her last breath. And now the oul bitch (turns to make sure no one's at the door) is getting buried in them! Has the woman no shame?!<br> SARAH: Earrings like that don't deserve to be buried alive! It's a sin!<br> MARY: She is doing this to spite us, you know.<br> SARAH: What should we do?<br> MARY: I don't know.<br> SARAH: (whispering) We could replace them with exact replicas.<br> MARY: Right. We don't have exact replicas is the thing, though.<br> SARAH: That's true enough, Mary, true enough.<br>",left,keypress(a),,,,,,,,,,,,,,
,,interval,canvas.Screen,4_2_1,response,988.7000000000116,371773,371771.128,371787.8,372776.5,372784,2025-11-28T19:25:22.607Z,372787.9,UXfuQC_Hvq,full,manuscript-study-5,69299244a99d9e200d04a72a,participant,hcpib6bxmij8xe8n,,,,,,,"[Scene: A dimly lit upstairs room. A covered body lies on a bed. On a small table beside it rest a pair of Mammy’s earrings, glittering. Mary and Sarah stand looking at them, tense.]<br> MARY: (softly) God, Sarah… those earrings—are they really hers?<br> SARAH: (eyes wide) Mammy’s, by the holy water. I recognised the clasp. Didn’t wear them since she got those at Feeney’s fair.<br> MARY: (swaying) But… what are they doing here, at this… scene? I mean… I shouldn’t be saying this— but it looks bad.<br> SARAH: Bad? It’s awful, Mary. If anyone sees those earrings—people’ll talk. This is not just grief now, it’s trouble.<br> MARY: (pacing) We need to put them somewhere safe. Bury them with her? No, that’ll raise questions.<br> SARAH: Hide them! Lock 'em in your jewellery box, or under the floorboards. Anywhere!<br> MARY: (hesitates) I'd hate to lose them. She’d kill me if she thought I misplaced them. After everything.<br> SARAH: Mammy’s sense of ‘losing’—you wouldn’t live through it. She’d have the heavens and earth turned inside out.<br> MARY: (stops pacing) Maybe… maybe we leave them with Sister Michael? She has no reason to lie about things.<br> SARAH: And what if she does? Then those earrings—Mammy’s beloved earrings—end up in some official report.<br> MARY: (kneels, picks up earrings) I can’t— I can’t leave them here, with this… this body.<br> SARAH: Don’t touch them too much, they’ll tarnish. Mammy loved them shining.<br> MARY: (places earrings back on table) Right. We’ll come back for them. Once no one's here. Once it’s safe.<br> SARAH: Safe? In this house? With the rumours flying? With Granda Joe talking to the neighbours?<br> MARY: (firmly) It’s the only chance we’ve got. Trust me, Sarah. I’ll look after them. Them earrings are Mammy’s pride.<br>",,"[In the room with the dead body. Sarah and Mary stand over it.]<br> MARY: After all was said and done, she wasn't a bad oul soul. I was actually quite fond of her, you know. And I really hope she's up there now, looking down on us both, thinking What in under Christ?!<br> SARAH: Aye, me too, Mary.<br> MARY: No, Sarah. Look! The earrings. Look at the earrings!<br> SARAH: God, aye. I wouldn't have put a drop on her, now, she doesn't have enough neck. She'd have been better with a stud.<br> MARY: They're Mammy's. She's wearing Mammy's earrings!<br> SARAH: So they are! How did she get them?!<br> MARY: She probably swooped in like a vulture before Mammy drew her last breath. And now the oul bitch (turns to make sure no one's at the door) is getting buried in them! Has the woman no shame?!<br> SARAH: Earrings like that don't deserve to be buried alive! It's a sin!<br> MARY: She is doing this to spite us, you know.<br> SARAH: What should we do?<br> MARY: I don't know.<br> SARAH: (whispering) We could replace them with exact replicas.<br> MARY: Right. We don't have exact replicas is the thing, though.<br> SARAH: That's true enough, Mary, true enough.<br>",,keypress,,,,,,,,,,,,,,
,,trial,flow.Sequence,4_2,completion,92907.5,279847.59999999404,279835.8,279869,372776.5,372784.299999997,2025-11-28T19:25:22.607Z,372787.9,UXfuQC_Hvq,full,manuscript-study-5,69299244a99d9e200d04a72a,participant,hcpib6bxmij8xe8n,,,,,,,"[Scene: A dimly lit upstairs room. A covered body lies on a bed. On a small table beside it rest a pair of Mammy’s earrings, glittering. Mary and Sarah stand looking at them, tense.]<br> MARY: (softly) God, Sarah… those earrings—are they really hers?<br> SARAH: (eyes wide) Mammy’s, by the holy water. I recognised the clasp. Didn’t wear them since she got those at Feeney’s fair.<br> MARY: (swaying) But… what are they doing here, at this… scene? I mean… I shouldn’t be saying this— but it looks bad.<br> SARAH: Bad? It’s awful, Mary. If anyone sees those earrings—people’ll talk. This is not just grief now, it’s trouble.<br> MARY: (pacing) We need to put them somewhere safe. Bury them with her? No, that’ll raise questions.<br> SARAH: Hide them! Lock 'em in your jewellery box, or under the floorboards. Anywhere!<br> MARY: (hesitates) I'd hate to lose them. She’d kill me if she thought I misplaced them. After everything.<br> SARAH: Mammy’s sense of ‘losing’—you wouldn’t live through it. She’d have the heavens and earth turned inside out.<br> MARY: (stops pacing) Maybe… maybe we leave them with Sister Michael? She has no reason to lie about things.<br> SARAH: And what if she does? Then those earrings—Mammy’s beloved earrings—end up in some official report.<br> MARY: (kneels, picks up earrings) I can’t— I can’t leave them here, with this… this body.<br> SARAH: Don’t touch them too much, they’ll tarnish. Mammy loved them shining.<br> MARY: (places earrings back on table) Right. We’ll come back for them. Once no one's here. Once it’s safe.<br> SARAH: Safe? In this house? With the rumours flying? With Granda Joe talking to the neighbours?<br> MARY: (firmly) It’s the only chance we’ve got. Trust me, Sarah. I’ll look after them. Them earrings are Mammy’s pride.<br>",,"[In the room with the dead body. Sarah and Mary stand over it.]<br> MARY: After all was said and done, she wasn't a bad oul soul. I was actually quite fond of her, you know. And I really hope she's up there now, looking down on us both, thinking What in under Christ?!<br> SARAH: Aye, me too, Mary.<br> MARY: No, Sarah. Look! The earrings. Look at the earrings!<br> SARAH: God, aye. I wouldn't have put a drop on her, now, she doesn't have enough neck. She'd have been better with a stud.<br> MARY: They're Mammy's. She's wearing Mammy's earrings!<br> SARAH: So they are! How did she get them?!<br> MARY: She probably swooped in like a vulture before Mammy drew her last breath. And now the oul bitch (turns to make sure no one's at the door) is getting buried in them! Has the woman no shame?!<br> SARAH: Earrings like that don't deserve to be buried alive! It's a sin!<br> MARY: She is doing this to spite us, you know.<br> SARAH: What should we do?<br> MARY: I don't know.<br> SARAH: (whispering) We could replace them with exact replicas.<br> MARY: Right. We don't have exact replicas is the thing, though.<br> SARAH: That's true enough, Mary, true enough.<br>",,,,,,,,,,,,,,,,
,,Showing scenes,html.Page,4_3_0,response,102124.69999999402,372784.39999999106,372787.76,372787.9,474912.59999999404,474920.59999999404,2025-11-28T19:27:04.742Z,474939.9,UXfuQC_Hvq,full,manuscript-study-5,69299244a99d9e200d04a72a,participant,hcpib6bxmij8xe8n,,,,,,,"[In the Quinn kitchen. Early morning light. Mary is sitting at the kitchen table, staring into a cup of tea. Erin is doing the dishes. Orla is hovering nearby with a feather duster.]<br> Mary: (quietly) I still can’t believe she’s gone.<br> Erin: (rinsing a plate) Aye, Mammy. It’s terrible. But you—none of this was your fault.<br> Orla: I’m sorry, Auntie Mary. She was lovely.<br> Mary: Lovely, yes. But if I’d phoned her last week instead of putting off… if I’d gone to see her…<br> Erin: (putting down dish) Mammy—there’s nothing you could’ve done.<br> Orla: Absolutely nothing.<br> Mary: (voice trembling) You don’t know that. I keep thinking, what if I’d… if I’d been kinder.<br> Erin: Kindness wouldn’t have changed what was coming.<br> Orla: Sometimes bad things just happen.<br> Mary: But I didn’t visit, Erin. I sent a card, sure. A sodding card.<br> Erin: A card with love in it. That counts.<br> Orla: Mum always loved your voice when you called.<br> Mary: (wipes her eyes) I suppose… I suppose she did.<br> Erin: You’re going to the wake, Mammy?<br> Mary: Yes. I need to. I need to see her coffin. Say goodbye properly.<br> Orla: We’ll help you, Auntie Mary.<br> Erin: I’ll do the dishes and I’ll dust the stairs after. You rest a while.<br> Mary: Erin, you don’t have to—<br> Erin: I want to. It’ll give my mind something to do besides wondering.<br> Orla: I’ll dry. And I’ll polish the windows if you like.<br> Mary: Thank you, girls. I don’t deserve such kindness.<br> Erin: Yes you do, Mammy. More than you know.<br> Kitchen doorbell rings.<br> Mary: (startled) Who’s that at this hour?<br> Erin: I’ll get it. (wipes hands, opens door) Oh—it's Mrs. Fleming from across the road.<br> Mrs. Fleming: I heard the news, Mary. I came by to offer my condolences.<br> Mary: That’s very kind. Come in, Mrs. Fleming. I’d appreciate the company.<br> Erin: (aside, to Orla) See, Mammy’s made it through to this morning. Small victories.<br>",true,"[In the Quinn kitchen. Mary sits in shock.]<br> Mary: I just cannot believe it.<br> Sarah: Listen, Mary, no matter what you've done, you're still my sister. I'll stand by you.<br> Mary: I haven't done anything, Sarah.<br> Granda Joe: Exactly, love. Everybody knows you didn't mean to kill the oul boot. God rest her soul.<br> Mary: I didn't kill her!<br> Granda Joe: Och, you know what I mean, not kill hex.<br> Mary: I didn't hex her either, Da! It was just a very tragic<br> Granda Joe: My mother, she had the gift too, you know. By God, that woman could make her enemies drop like flies.<br> Mary: Well look, I don't have any gift. There's no dark forces at play here. I just said something unfortunate that happened to<br> Sarah: Cause her death?<br> Mary: Coincide with her death!<br> (Erin and Orla stand by the sink.)<br> Erin: Right, well, that's the dishes done. Would you like another cup of tea there, Mammy?<br> Mary: No, I'm fine.<br> Erin: I'll just grab the Hoover and give the stairs a bit of a going over.<br> Orla: (eating a lolly) And I'll maybe do a bit of dusting.<br> Mary: What's gotten into you two? What are you up to? What do you want?<br> Erin: Nothing. We just thought that we should pull our weight a bit more, Mammy.<br> Orla: You do so much for us, Aunt Mary.<br> Erin: And you deserve a bit of a break.<br> Mary: I can't hex people, girls. It was an accident!<br> (Gerry walks in.)<br> Gerry: So how's the wicked witch of the North West?<br> Granda Joe: Who put 50p in the eejit?<br> Mary: God, how am I going to go to this wake?<br> Granda Joe: It'll be grand, love. But listen, see if things do get heated? Try not to rise to it. The last thing we want is another dead body on our hands, here.<br> Mary: I'll do my best, Da.<br>",right,keypress(d),,,,,,,,,,,,,,
,,interval,canvas.Screen,4_3_1,timeout,5000.099999999977,474920.799999997,474923.33,474939.9,479923.3,479925.09999999404,2025-11-28T19:27:09.746Z,479940,UXfuQC_Hvq,full,manuscript-study-5,69299244a99d9e200d04a72a,participant,hcpib6bxmij8xe8n,,,,,,,"[In the Quinn kitchen. Early morning light. Mary is sitting at the kitchen table, staring into a cup of tea. Erin is doing the dishes. Orla is hovering nearby with a feather duster.]<br> Mary: (quietly) I still can’t believe she’s gone.<br> Erin: (rinsing a plate) Aye, Mammy. It’s terrible. But you—none of this was your fault.<br> Orla: I’m sorry, Auntie Mary. She was lovely.<br> Mary: Lovely, yes. But if I’d phoned her last week instead of putting off… if I’d gone to see her…<br> Erin: (putting down dish) Mammy—there’s nothing you could’ve done.<br> Orla: Absolutely nothing.<br> Mary: (voice trembling) You don’t know that. I keep thinking, what if I’d… if I’d been kinder.<br> Erin: Kindness wouldn’t have changed what was coming.<br> Orla: Sometimes bad things just happen.<br> Mary: But I didn’t visit, Erin. I sent a card, sure. A sodding card.<br> Erin: A card with love in it. That counts.<br> Orla: Mum always loved your voice when you called.<br> Mary: (wipes her eyes) I suppose… I suppose she did.<br> Erin: You’re going to the wake, Mammy?<br> Mary: Yes. I need to. I need to see her coffin. Say goodbye properly.<br> Orla: We’ll help you, Auntie Mary.<br> Erin: I’ll do the dishes and I’ll dust the stairs after. You rest a while.<br> Mary: Erin, you don’t have to—<br> Erin: I want to. It’ll give my mind something to do besides wondering.<br> Orla: I’ll dry. And I’ll polish the windows if you like.<br> Mary: Thank you, girls. I don’t deserve such kindness.<br> Erin: Yes you do, Mammy. More than you know.<br> Kitchen doorbell rings.<br> Mary: (startled) Who’s that at this hour?<br> Erin: I’ll get it. (wipes hands, opens door) Oh—it's Mrs. Fleming from across the road.<br> Mrs. Fleming: I heard the news, Mary. I came by to offer my condolences.<br> Mary: That’s very kind. Come in, Mrs. Fleming. I’d appreciate the company.<br> Erin: (aside, to Orla) See, Mammy’s made it through to this morning. Small victories.<br>",,"[In the Quinn kitchen. Mary sits in shock.]<br> Mary: I just cannot believe it.<br> Sarah: Listen, Mary, no matter what you've done, you're still my sister. I'll stand by you.<br> Mary: I haven't done anything, Sarah.<br> Granda Joe: Exactly, love. Everybody knows you didn't mean to kill the oul boot. God rest her soul.<br> Mary: I didn't kill her!<br> Granda Joe: Och, you know what I mean, not kill hex.<br> Mary: I didn't hex her either, Da! It was just a very tragic<br> Granda Joe: My mother, she had the gift too, you know. By God, that woman could make her enemies drop like flies.<br> Mary: Well look, I don't have any gift. There's no dark forces at play here. I just said something unfortunate that happened to<br> Sarah: Cause her death?<br> Mary: Coincide with her death!<br> (Erin and Orla stand by the sink.)<br> Erin: Right, well, that's the dishes done. Would you like another cup of tea there, Mammy?<br> Mary: No, I'm fine.<br> Erin: I'll just grab the Hoover and give the stairs a bit of a going over.<br> Orla: (eating a lolly) And I'll maybe do a bit of dusting.<br> Mary: What's gotten into you two? What are you up to? What do you want?<br> Erin: Nothing. We just thought that we should pull our weight a bit more, Mammy.<br> Orla: You do so much for us, Aunt Mary.<br> Erin: And you deserve a bit of a break.<br> Mary: I can't hex people, girls. It was an accident!<br> (Gerry walks in.)<br> Gerry: So how's the wicked witch of the North West?<br> Granda Joe: Who put 50p in the eejit?<br> Mary: God, how am I going to go to this wake?<br> Granda Joe: It'll be grand, love. But listen, see if things do get heated? Try not to rise to it. The last thing we want is another dead body on our hands, here.<br> Mary: I'll do my best, Da.<br>",,,,,,,,,,,,,,,,
,,trial,flow.Sequence,4_3,completion,107135.39999999997,372784.299999997,372787.76,372787.9,479923.3,479925.39999999106,2025-11-28T19:27:09.747Z,479940,UXfuQC_Hvq,full,manuscript-study-5,69299244a99d9e200d04a72a,participant,hcpib6bxmij8xe8n,,,,,,,"[In the Quinn kitchen. Early morning light. Mary is sitting at the kitchen table, staring into a cup of tea. Erin is doing the dishes. Orla is hovering nearby with a feather duster.]<br> Mary: (quietly) I still can’t believe she’s gone.<br> Erin: (rinsing a plate) Aye, Mammy. It’s terrible. But you—none of this was your fault.<br> Orla: I’m sorry, Auntie Mary. She was lovely.<br> Mary: Lovely, yes. But if I’d phoned her last week instead of putting off… if I’d gone to see her…<br> Erin: (putting down dish) Mammy—there’s nothing you could’ve done.<br> Orla: Absolutely nothing.<br> Mary: (voice trembling) You don’t know that. I keep thinking, what if I’d… if I’d been kinder.<br> Erin: Kindness wouldn’t have changed what was coming.<br> Orla: Sometimes bad things just happen.<br> Mary: But I didn’t visit, Erin. I sent a card, sure. A sodding card.<br> Erin: A card with love in it. That counts.<br> Orla: Mum always loved your voice when you called.<br> Mary: (wipes her eyes) I suppose… I suppose she did.<br> Erin: You’re going to the wake, Mammy?<br> Mary: Yes. I need to. I need to see her coffin. Say goodbye properly.<br> Orla: We’ll help you, Auntie Mary.<br> Erin: I’ll do the dishes and I’ll dust the stairs after. You rest a while.<br> Mary: Erin, you don’t have to—<br> Erin: I want to. It’ll give my mind something to do besides wondering.<br> Orla: I’ll dry. And I’ll polish the windows if you like.<br> Mary: Thank you, girls. I don’t deserve such kindness.<br> Erin: Yes you do, Mammy. More than you know.<br> Kitchen doorbell rings.<br> Mary: (startled) Who’s that at this hour?<br> Erin: I’ll get it. (wipes hands, opens door) Oh—it's Mrs. Fleming from across the road.<br> Mrs. Fleming: I heard the news, Mary. I came by to offer my condolences.<br> Mary: That’s very kind. Come in, Mrs. Fleming. I’d appreciate the company.<br> Erin: (aside, to Orla) See, Mammy’s made it through to this morning. Small victories.<br>",,"[In the Quinn kitchen. Mary sits in shock.]<br> Mary: I just cannot believe it.<br> Sarah: Listen, Mary, no matter what you've done, you're still my sister. I'll stand by you.<br> Mary: I haven't done anything, Sarah.<br> Granda Joe: Exactly, love. Everybody knows you didn't mean to kill the oul boot. God rest her soul.<br> Mary: I didn't kill her!<br> Granda Joe: Och, you know what I mean, not kill hex.<br> Mary: I didn't hex her either, Da! It was just a very tragic<br> Granda Joe: My mother, she had the gift too, you know. By God, that woman could make her enemies drop like flies.<br> Mary: Well look, I don't have any gift. There's no dark forces at play here. I just said something unfortunate that happened to<br> Sarah: Cause her death?<br> Mary: Coincide with her death!<br> (Erin and Orla stand by the sink.)<br> Erin: Right, well, that's the dishes done. Would you like another cup of tea there, Mammy?<br> Mary: No, I'm fine.<br> Erin: I'll just grab the Hoover and give the stairs a bit of a going over.<br> Orla: (eating a lolly) And I'll maybe do a bit of dusting.<br> Mary: What's gotten into you two? What are you up to? What do you want?<br> Erin: Nothing. We just thought that we should pull our weight a bit more, Mammy.<br> Orla: You do so much for us, Aunt Mary.<br> Erin: And you deserve a bit of a break.<br> Mary: I can't hex people, girls. It was an accident!<br> (Gerry walks in.)<br> Gerry: So how's the wicked witch of the North West?<br> Granda Joe: Who put 50p in the eejit?<br> Mary: God, how am I going to go to this wake?<br> Granda Joe: It'll be grand, love. But listen, see if things do get heated? Try not to rise to it. The last thing we want is another dead body on our hands, here.<br> Mary: I'll do my best, Da.<br>",,,,,,,,,,,,,,,,
,,Showing scenes,html.Page,4_4_0,response,38982109.19999999,479925.59999999404,479923.3,479940,39462049.19999999,39462062.099999994,2025-11-29T07:35:19.364Z,39462090.5,UXfuQC_Hvq,full,manuscript-study-5,69299244a99d9e200d04a72a,participant,hcpib6bxmij8xe8n,,,,,,,"[In the Quinn living room. Clare is sitting on the sofa, James reading a comic. Erin enters, overhearing them.]<br> ERIN: What are you two sulking about?<br> CLARE: Nothing, Erin, really.<br> JAMES: Clare wanted to ask me something—but, well, it’s a bit awkward.<br> ERIN: Is this about prom?<br> CLARE: Yes.<br> JAMES: The prom is the same night as Doctor Who night.<br> ERIN: Seriously? That’s tragic.<br> CLARE: I was going to ask you to go with me, James.<br> JAMES: I know. I just… I’m a lesbian, Clare. Prom feels like a different kind of asking out.<br> CLARE: Right. I didn’t think straight about that. I just thought…<br> JAMES: I know, Clare. And I’m flattered—it’s sweet.<br> ERIN: So what’re you going to do?<br> JAMES: I won’t go to prom. I’ll stay home and watch Doctor Who.<br> CLARE: I get that. I’m sorry if I made this complicated.<br> MARY (off-stage, calling): Erin! Are you in there? Dinner’s ready!<br> ERIN: (loud whisper) I vote Doctor Who night.<br> CLARE: Me too—just keep the time open, James.<br> [They share a small smile as Erin exits to call Mary, Clare and James sit quietly, slightly awkward but closer.]<br>",true,"[In the street.]<br> MICHELLE: Well, this prom's going to be a full-blown dick fest. You know there isn't even going to be a DJ? Apparently Jenny hired this fucking pensioner band.<br> (Orla happily waves at someone on the street.)<br> ERIN: Christ. Really?<br> MICHELLE: I heard the drummer is at least thirty!<br> JAMES: I don't feel so bad about missing it now. It clashes with my thing.<br> MICHELLE: The creep convention? Seriously?<br> JAMES: It's not a creep convention.<br> MICHELLE: Well, I think a load of perverts getting together to wank over some fella, who fights with hoovers and rides aliens in a telephone box, is the very fucking definition of a creep convention.<br> JAMES: It's a Doctor Who night. Me and my stepdad used to watch it when I was little.<br> MICHELLE: Well someone should have called social services then James!<br> CLARE: (upset) You're not going to the prom then, James? Well, I was going to ask you to be my date!<br> (Michelle looks disgusted.)<br> JAMES: I'm sorry, Clare.<br> MICHELLE: You were going to ask James to be your date? What the fuck's wrong with you?<br> CLARE: Well it's a bit more complicated for me!<br> MICHELLE: You're a lesbian, Clare. Not desperate.<br>",left,keypress(a),,,,,,,,,,,,,,
,,interval,canvas.Screen,4_4_1,response,922.5,39462062.5,39462074.022,39462090.5,39463013,39463020.599999994,2025-11-29T07:35:20.322Z,39463040.6,UXfuQC_Hvq,full,manuscript-study-5,69299244a99d9e200d04a72a,participant,hcpib6bxmij8xe8n,,,,,,,"[In the Quinn living room. Clare is sitting on the sofa, James reading a comic. Erin enters, overhearing them.]<br> ERIN: What are you two sulking about?<br> CLARE: Nothing, Erin, really.<br> JAMES: Clare wanted to ask me something—but, well, it’s a bit awkward.<br> ERIN: Is this about prom?<br> CLARE: Yes.<br> JAMES: The prom is the same night as Doctor Who night.<br> ERIN: Seriously? That’s tragic.<br> CLARE: I was going to ask you to go with me, James.<br> JAMES: I know. I just… I’m a lesbian, Clare. Prom feels like a different kind of asking out.<br> CLARE: Right. I didn’t think straight about that. I just thought…<br> JAMES: I know, Clare. And I’m flattered—it’s sweet.<br> ERIN: So what’re you going to do?<br> JAMES: I won’t go to prom. I’ll stay home and watch Doctor Who.<br> CLARE: I get that. I’m sorry if I made this complicated.<br> MARY (off-stage, calling): Erin! Are you in there? Dinner’s ready!<br> ERIN: (loud whisper) I vote Doctor Who night.<br> CLARE: Me too—just keep the time open, James.<br> [They share a small smile as Erin exits to call Mary, Clare and James sit quietly, slightly awkward but closer.]<br>",,"[In the street.]<br> MICHELLE: Well, this prom's going to be a full-blown dick fest. You know there isn't even going to be a DJ? Apparently Jenny hired this fucking pensioner band.<br> (Orla happily waves at someone on the street.)<br> ERIN: Christ. Really?<br> MICHELLE: I heard the drummer is at least thirty!<br> JAMES: I don't feel so bad about missing it now. It clashes with my thing.<br> MICHELLE: The creep convention? Seriously?<br> JAMES: It's not a creep convention.<br> MICHELLE: Well, I think a load of perverts getting together to wank over some fella, who fights with hoovers and rides aliens in a telephone box, is the very fucking definition of a creep convention.<br> JAMES: It's a Doctor Who night. Me and my stepdad used to watch it when I was little.<br> MICHELLE: Well someone should have called social services then James!<br> CLARE: (upset) You're not going to the prom then, James? Well, I was going to ask you to be my date!<br> (Michelle looks disgusted.)<br> JAMES: I'm sorry, Clare.<br> MICHELLE: You were going to ask James to be your date? What the fuck's wrong with you?<br> CLARE: Well it's a bit more complicated for me!<br> MICHELLE: You're a lesbian, Clare. Not desperate.<br>",,keypress,,,,,,,,,,,,,,
,,trial,flow.Sequence,4_4,completion,38983073,479925.5,479923.3,479940,39463013,39463022,2025-11-29T07:35:20.324Z,39463040.6,UXfuQC_Hvq,full,manuscript-study-5,69299244a99d9e200d04a72a,participant,hcpib6bxmij8xe8n,,,,,,,"[In the Quinn living room. Clare is sitting on the sofa, James reading a comic. Erin enters, overhearing them.]<br> ERIN: What are you two sulking about?<br> CLARE: Nothing, Erin, really.<br> JAMES: Clare wanted to ask me something—but, well, it’s a bit awkward.<br> ERIN: Is this about prom?<br> CLARE: Yes.<br> JAMES: The prom is the same night as Doctor Who night.<br> ERIN: Seriously? That’s tragic.<br> CLARE: I was going to ask you to go with me, James.<br> JAMES: I know. I just… I’m a lesbian, Clare. Prom feels like a different kind of asking out.<br> CLARE: Right. I didn’t think straight about that. I just thought…<br> JAMES: I know, Clare. And I’m flattered—it’s sweet.<br> ERIN: So what’re you going to do?<br> JAMES: I won’t go to prom. I’ll stay home and watch Doctor Who.<br> CLARE: I get that. I’m sorry if I made this complicated.<br> MARY (off-stage, calling): Erin! Are you in there? Dinner’s ready!<br> ERIN: (loud whisper) I vote Doctor Who night.<br> CLARE: Me too—just keep the time open, James.<br> [They share a small smile as Erin exits to call Mary, Clare and James sit quietly, slightly awkward but closer.]<br>",,"[In the street.]<br> MICHELLE: Well, this prom's going to be a full-blown dick fest. You know there isn't even going to be a DJ? Apparently Jenny hired this fucking pensioner band.<br> (Orla happily waves at someone on the street.)<br> ERIN: Christ. Really?<br> MICHELLE: I heard the drummer is at least thirty!<br> JAMES: I don't feel so bad about missing it now. It clashes with my thing.<br> MICHELLE: The creep convention? Seriously?<br> JAMES: It's not a creep convention.<br> MICHELLE: Well, I think a load of perverts getting together to wank over some fella, who fights with hoovers and rides aliens in a telephone box, is the very fucking definition of a creep convention.<br> JAMES: It's a Doctor Who night. Me and my stepdad used to watch it when I was little.<br> MICHELLE: Well someone should have called social services then James!<br> CLARE: (upset) You're not going to the prom then, James? Well, I was going to ask you to be my date!<br> (Michelle looks disgusted.)<br> JAMES: I'm sorry, Clare.<br> MICHELLE: You were going to ask James to be your date? What the fuck's wrong with you?<br> CLARE: Well it's a bit more complicated for me!<br> MICHELLE: You're a lesbian, Clare. Not desperate.<br>",,,,,,,,,,,,,,,,
,,Showing scenes,html.Page,4_5_0,response,68629.39999999851,39463022.099999994,39463023.95,39463040.6,39531670,39531676.5,2025-11-29T07:36:28.977Z,39531692,UXfuQC_Hvq,full,manuscript-study-5,69299244a99d9e200d04a72a,participant,hcpib6bxmij8xe8n,,,,,,,"[Outside Erin’s house. Erin and Orla are each shoulder-strapping backpacks. Morning light.]<br> Erin: Are you sure there’s no breakfast first?<br> Orla: There’s a banana in my bag. Your Ma made the toast.<br> Erin: Fine. (slings bag) South-east for half a mile, she said. Then wait. More instructions.<br> Orla: Why south-east though? Why not just go east?<br> Erin: She’s always fancied compass points. Learned them during the Troubles, she says.<br> [They step off the porch and begin walking down the lane.]<br> Mary: (from doorway) Girls! Did you pack enough socks?<br> Erin: (calling back) Socks are in, Ma! And two bottles of water.<br> Mary: Good. And stay together. Whatever comes next.<br> Orla: (quietly) Erin, what if the instructions are stupid?<br> Erin: We’ll make them less stupid. That’s what we’re good at.<br> [They round the corner and head along a narrow road toward south-east.]<br> Orla: I hate marches like this. All this walking and nobody telling you when it's going to end.<br> Erin: Think of it like a treasure hunt. With imminent danger.<br> Orla: That’s ___ comforting.<br> [They walk past a row of closed shops, bags heavy on shoulders.]<br> Erin: Half a mile isn’t far. Shouldn’t take more than ten minutes.<br> Orla: And then?<br> Erin: Then we wait. Maybe messages. Maybe people. Whoever.<br> Orla: Promise we’ll go home if it gets mad dangerous?<br> Erin: I promise. Nothing’s worth risking you.<br> Orla: Thanks. (smiles) Now hurry up—I’m lagging behind.<br> [They continue walking, fading into the quiet street as the sky lightens.]<br>",true,"[On the street. The kids walk with their bags.]<br> Michelle: We're doing it for peace, all right, Mary. A piece of that fine Protestant ass!<br> (Erin and Michelle high-five excitedly.)<br> Clare: (disgusted) God, you are such a hypocrite, Erin.<br> Erin: No, I'm not. I just don't think there's anything wrong with some cross-community<br> Michelle: Fiddling.<br> Erin: Relations.<br> Orla: (looking at a map) So we need to head south-east for 0.5 miles and you'll receive further instructions shortly.<br> Erin: We haven't even left the estate yet, Orla.<br> Michelle: These Prods have some serious moves up their sleeves, you know. They're not as fucked up about sex as we are. They've put the work in. They know what they're doing.<br> Clare: They're people, Michelle. They're not sex toys.<br> Michelle: I beg to differ.<br> James: I'm really looking forward to making friends with some lads. (smiling)<br> Michelle: Lads aren't going to make friends with you, James. Lads make friends with other lads.<br> James: I am a lad.<br> Erin: Aye, so you are, James.<br> Clare: (taking money out of her pocket) Okay, how much money do we have?<br> Michelle: Look, the riding of the Protestants is one thing, but I don't see why we have to buy them a present. I mean they already have all the land, all the jobs and all the fucking rights.<br> Erin: Aye, Michelle. That's definitely the attitude we should have entering into this weekend.<br>",left,keypress(a),,,,,,,,,,,,,,
,,interval,canvas.Screen,4_5_1,response,970.2999999970198,39531676.8,39531675.358,39531692,39532662.3,39532668.599999994,2025-11-29T07:36:29.969Z,39532692,UXfuQC_Hvq,full,manuscript-study-5,69299244a99d9e200d04a72a,participant,hcpib6bxmij8xe8n,,,,,,,"[Outside Erin’s house. Erin and Orla are each shoulder-strapping backpacks. Morning light.]<br> Erin: Are you sure there’s no breakfast first?<br> Orla: There’s a banana in my bag. Your Ma made the toast.<br> Erin: Fine. (slings bag) South-east for half a mile, she said. Then wait. More instructions.<br> Orla: Why south-east though? Why not just go east?<br> Erin: She’s always fancied compass points. Learned them during the Troubles, she says.<br> [They step off the porch and begin walking down the lane.]<br> Mary: (from doorway) Girls! Did you pack enough socks?<br> Erin: (calling back) Socks are in, Ma! And two bottles of water.<br> Mary: Good. And stay together. Whatever comes next.<br> Orla: (quietly) Erin, what if the instructions are stupid?<br> Erin: We’ll make them less stupid. That’s what we’re good at.<br> [They round the corner and head along a narrow road toward south-east.]<br> Orla: I hate marches like this. All this walking and nobody telling you when it's going to end.<br> Erin: Think of it like a treasure hunt. With imminent danger.<br> Orla: That’s ___ comforting.<br> [They walk past a row of closed shops, bags heavy on shoulders.]<br> Erin: Half a mile isn’t far. Shouldn’t take more than ten minutes.<br> Orla: And then?<br> Erin: Then we wait. Maybe messages. Maybe people. Whoever.<br> Orla: Promise we’ll go home if it gets mad dangerous?<br> Erin: I promise. Nothing’s worth risking you.<br> Orla: Thanks. (smiles) Now hurry up—I’m lagging behind.<br> [They continue walking, fading into the quiet street as the sky lightens.]<br>",,"[On the street. The kids walk with their bags.]<br> Michelle: We're doing it for peace, all right, Mary. A piece of that fine Protestant ass!<br> (Erin and Michelle high-five excitedly.)<br> Clare: (disgusted) God, you are such a hypocrite, Erin.<br> Erin: No, I'm not. I just don't think there's anything wrong with some cross-community<br> Michelle: Fiddling.<br> Erin: Relations.<br> Orla: (looking at a map) So we need to head south-east for 0.5 miles and you'll receive further instructions shortly.<br> Erin: We haven't even left the estate yet, Orla.<br> Michelle: These Prods have some serious moves up their sleeves, you know. They're not as fucked up about sex as we are. They've put the work in. They know what they're doing.<br> Clare: They're people, Michelle. They're not sex toys.<br> Michelle: I beg to differ.<br> James: I'm really looking forward to making friends with some lads. (smiling)<br> Michelle: Lads aren't going to make friends with you, James. Lads make friends with other lads.<br> James: I am a lad.<br> Erin: Aye, so you are, James.<br> Clare: (taking money out of her pocket) Okay, how much money do we have?<br> Michelle: Look, the riding of the Protestants is one thing, but I don't see why we have to buy them a present. I mean they already have all the land, all the jobs and all the fucking rights.<br> Erin: Aye, Michelle. That's definitely the attitude we should have entering into this weekend.<br>",,keypress,,,,,,,,,,,,,,
,,trial,flow.Sequence,4_5,completion,69621.69999999553,39463022.099999994,39463023.95,39463040.6,39532662.3,39532668.8,2025-11-29T07:36:29.969Z,39532692,UXfuQC_Hvq,full,manuscript-study-5,69299244a99d9e200d04a72a,participant,hcpib6bxmij8xe8n,,,,,,,"[Outside Erin’s house. Erin and Orla are each shoulder-strapping backpacks. Morning light.]<br> Erin: Are you sure there’s no breakfast first?<br> Orla: There’s a banana in my bag. Your Ma made the toast.<br> Erin: Fine. (slings bag) South-east for half a mile, she said. Then wait. More instructions.<br> Orla: Why south-east though? Why not just go east?<br> Erin: She’s always fancied compass points. Learned them during the Troubles, she says.<br> [They step off the porch and begin walking down the lane.]<br> Mary: (from doorway) Girls! Did you pack enough socks?<br> Erin: (calling back) Socks are in, Ma! And two bottles of water.<br> Mary: Good. And stay together. Whatever comes next.<br> Orla: (quietly) Erin, what if the instructions are stupid?<br> Erin: We’ll make them less stupid. That’s what we’re good at.<br> [They round the corner and head along a narrow road toward south-east.]<br> Orla: I hate marches like this. All this walking and nobody telling you when it's going to end.<br> Erin: Think of it like a treasure hunt. With imminent danger.<br> Orla: That’s ___ comforting.<br> [They walk past a row of closed shops, bags heavy on shoulders.]<br> Erin: Half a mile isn’t far. Shouldn’t take more than ten minutes.<br> Orla: And then?<br> Erin: Then we wait. Maybe messages. Maybe people. Whoever.<br> Orla: Promise we’ll go home if it gets mad dangerous?<br> Erin: I promise. Nothing’s worth risking you.<br> Orla: Thanks. (smiles) Now hurry up—I’m lagging behind.<br> [They continue walking, fading into the quiet street as the sky lightens.]<br>",,"[On the street. The kids walk with their bags.]<br> Michelle: We're doing it for peace, all right, Mary. A piece of that fine Protestant ass!<br> (Erin and Michelle high-five excitedly.)<br> Clare: (disgusted) God, you are such a hypocrite, Erin.<br> Erin: No, I'm not. I just don't think there's anything wrong with some cross-community<br> Michelle: Fiddling.<br> Erin: Relations.<br> Orla: (looking at a map) So we need to head south-east for 0.5 miles and you'll receive further instructions shortly.<br> Erin: We haven't even left the estate yet, Orla.<br> Michelle: These Prods have some serious moves up their sleeves, you know. They're not as fucked up about sex as we are. They've put the work in. They know what they're doing.<br> Clare: They're people, Michelle. They're not sex toys.<br> Michelle: I beg to differ.<br> James: I'm really looking forward to making friends with some lads. (smiling)<br> Michelle: Lads aren't going to make friends with you, James. Lads make friends with other lads.<br> James: I am a lad.<br> Erin: Aye, so you are, James.<br> Clare: (taking money out of her pocket) Okay, how much money do we have?<br> Michelle: Look, the riding of the Protestants is one thing, but I don't see why we have to buy them a present. I mean they already have all the land, all the jobs and all the fucking rights.<br> Erin: Aye, Michelle. That's definitely the attitude we should have entering into this weekend.<br>",,,,,,,,,,,,,,,,
,,Showing scenes,html.Page,4_6_0,response,48397.5,39532669,39532658.628,39532692,39581089.5,39581097.8,2025-11-29T07:37:18.397Z,39581109.8,UXfuQC_Hvq,full,manuscript-study-5,69299244a99d9e200d04a72a,participant,hcpib6bxmij8xe8n,,,,,,,"[In Erin’s bedroom. Erin sits at her desk, writing in a notebook. Michelle knocks and enters.]<br> MICHELLE: What’re you writing, Erin?<br> ERIN: It’s a love story... for someone special.<br> [James slips in behind Michelle.]<br> JAMES: Ah, romance! Are you going to read it out loud?<br> ERIN: Not yet. I just used a word and they’re asking me what it means.<br> MICHELLE: Which word? Is it one of those posh words like “beguile” or something?<br> ERIN: No—it’s “bide.” I wrote: “He will bide with her until dawn.”<br> MICHELLE: Bide...? What does that even mean? Stay? Wait?<br> ERIN: Exactly, sort of. “Bide” means to stay somewhere or remain somewhere for a time… to wait.<br> JAMES: So like when Dad says he’ll bide till the craic’s over before going home?<br> ERIN: Yes, James, exactly like that—but in a romantic way, not your da’s pub habits.<br> [Mary sticks her head in the door.]<br> MICHELLE: Mam, can you help? What does “bide” mean?<br> MARY: “Bide” is like when you wait for something good—you don’t rush it. You stay patient, you hope.<br> ERIN: Thank you, Mam. Finally someone gets it.<br> JAMES: So in your story, the lad bides with the lass because he’s waiting for love, not because he’s stuck?<br> ERIN: Precisely! Get your brains in gear, James.<br> MICHELLE: Right, now I understand. Go on, read more!<br>",true,"[In the Quinn kitchen. The kids are eating junk food and writing.]<br> CLARE: (frustrated) God, this whole writing-from-the-soul carry-on is a nightmare.<br> JAMES: I know.<br> MICHELLE: What rhymes with ride?<br> CLARE: Bide.<br> MICHELLE: Bide? What the fuck does bide mean? Bide. That's not a word.<br> CLARE: It is a word, Michelle.<br> MICHELLE: Bide? You've pure made that up.<br> ERIN: Can we all be quiet? Please.<br> ORLA: (holding up a picture she drew of James) What do you think, James? You've got red eyes cause I ran out of brown.<br> JAMES: My eyes are green.<br> ORLA: Now you tell me. (she looks distraught)<br> ERIN: Okay. So, I'm trying not to think too much. Just to sort of let it flow through me.<br> MICHELLE: Aw, that's minging Erin.<br> ERIN: (annoyed) Here's what I have so far. You know we belong together, you and I, forever and ever. No matter where you are, you're my guiding star.<br> JAMES: Isn't that the theme tune to Home and Away?<br> ERIN: Is it? (frustrated) Aw, for God's sake!<br>",left,keypress(a),,,,,,,,,,,,,,
,,interval,canvas.Screen,4_6_1,response,769.7000000029802,39581098.099999994,39581092.944,39581109.8,39581879.5,39581886,2025-11-29T07:37:19.185Z,39581909.7,UXfuQC_Hvq,full,manuscript-study-5,69299244a99d9e200d04a72a,participant,hcpib6bxmij8xe8n,,,,,,,"[In Erin’s bedroom. Erin sits at her desk, writing in a notebook. Michelle knocks and enters.]<br> MICHELLE: What’re you writing, Erin?<br> ERIN: It’s a love story... for someone special.<br> [James slips in behind Michelle.]<br> JAMES: Ah, romance! Are you going to read it out loud?<br> ERIN: Not yet. I just used a word and they’re asking me what it means.<br> MICHELLE: Which word? Is it one of those posh words like “beguile” or something?<br> ERIN: No—it’s “bide.” I wrote: “He will bide with her until dawn.”<br> MICHELLE: Bide...? What does that even mean? Stay? Wait?<br> ERIN: Exactly, sort of. “Bide” means to stay somewhere or remain somewhere for a time… to wait.<br> JAMES: So like when Dad says he’ll bide till the craic’s over before going home?<br> ERIN: Yes, James, exactly like that—but in a romantic way, not your da’s pub habits.<br> [Mary sticks her head in the door.]<br> MICHELLE: Mam, can you help? What does “bide” mean?<br> MARY: “Bide” is like when you wait for something good—you don’t rush it. You stay patient, you hope.<br> ERIN: Thank you, Mam. Finally someone gets it.<br> JAMES: So in your story, the lad bides with the lass because he’s waiting for love, not because he’s stuck?<br> ERIN: Precisely! Get your brains in gear, James.<br> MICHELLE: Right, now I understand. Go on, read more!<br>",,"[In the Quinn kitchen. The kids are eating junk food and writing.]<br> CLARE: (frustrated) God, this whole writing-from-the-soul carry-on is a nightmare.<br> JAMES: I know.<br> MICHELLE: What rhymes with ride?<br> CLARE: Bide.<br> MICHELLE: Bide? What the fuck does bide mean? Bide. That's not a word.<br> CLARE: It is a word, Michelle.<br> MICHELLE: Bide? You've pure made that up.<br> ERIN: Can we all be quiet? Please.<br> ORLA: (holding up a picture she drew of James) What do you think, James? You've got red eyes cause I ran out of brown.<br> JAMES: My eyes are green.<br> ORLA: Now you tell me. (she looks distraught)<br> ERIN: Okay. So, I'm trying not to think too much. Just to sort of let it flow through me.<br> MICHELLE: Aw, that's minging Erin.<br> ERIN: (annoyed) Here's what I have so far. You know we belong together, you and I, forever and ever. No matter where you are, you're my guiding star.<br> JAMES: Isn't that the theme tune to Home and Away?<br> ERIN: Is it? (frustrated) Aw, for God's sake!<br>",,keypress,,,,,,,,,,,,,,
,,trial,flow.Sequence,4_6,completion,49187.5,39532669,39532658.628,39532692,39581879.5,39581886.39999999,2025-11-29T07:37:19.185Z,39581909.7,UXfuQC_Hvq,full,manuscript-study-5,69299244a99d9e200d04a72a,participant,hcpib6bxmij8xe8n,,,,,,,"[In Erin’s bedroom. Erin sits at her desk, writing in a notebook. Michelle knocks and enters.]<br> MICHELLE: What’re you writing, Erin?<br> ERIN: It’s a love story... for someone special.<br> [James slips in behind Michelle.]<br> JAMES: Ah, romance! Are you going to read it out loud?<br> ERIN: Not yet. I just used a word and they’re asking me what it means.<br> MICHELLE: Which word? Is it one of those posh words like “beguile” or something?<br> ERIN: No—it’s “bide.” I wrote: “He will bide with her until dawn.”<br> MICHELLE: Bide...? What does that even mean? Stay? Wait?<br> ERIN: Exactly, sort of. “Bide” means to stay somewhere or remain somewhere for a time… to wait.<br> JAMES: So like when Dad says he’ll bide till the craic’s over before going home?<br> ERIN: Yes, James, exactly like that—but in a romantic way, not your da’s pub habits.<br> [Mary sticks her head in the door.]<br> MICHELLE: Mam, can you help? What does “bide” mean?<br> MARY: “Bide” is like when you wait for something good—you don’t rush it. You stay patient, you hope.<br> ERIN: Thank you, Mam. Finally someone gets it.<br> JAMES: So in your story, the lad bides with the lass because he’s waiting for love, not because he’s stuck?<br> ERIN: Precisely! Get your brains in gear, James.<br> MICHELLE: Right, now I understand. Go on, read more!<br>",,"[In the Quinn kitchen. The kids are eating junk food and writing.]<br> CLARE: (frustrated) God, this whole writing-from-the-soul carry-on is a nightmare.<br> JAMES: I know.<br> MICHELLE: What rhymes with ride?<br> CLARE: Bide.<br> MICHELLE: Bide? What the fuck does bide mean? Bide. That's not a word.<br> CLARE: It is a word, Michelle.<br> MICHELLE: Bide? You've pure made that up.<br> ERIN: Can we all be quiet? Please.<br> ORLA: (holding up a picture she drew of James) What do you think, James? You've got red eyes cause I ran out of brown.<br> JAMES: My eyes are green.<br> ORLA: Now you tell me. (she looks distraught)<br> ERIN: Okay. So, I'm trying not to think too much. Just to sort of let it flow through me.<br> MICHELLE: Aw, that's minging Erin.<br> ERIN: (annoyed) Here's what I have so far. You know we belong together, you and I, forever and ever. No matter where you are, you're my guiding star.<br> JAMES: Isn't that the theme tune to Home and Away?<br> ERIN: Is it? (frustrated) Aw, for God's sake!<br>",,,,,,,,,,,,,,,,
,,Showing scenes,html.Page,4_7_0,response,56678.9999999851,39581886.5,39581876.436,39581909.7,39638588.69999999,39638595.3,2025-11-29T07:38:15.893Z,39638610.9,UXfuQC_Hvq,full,manuscript-study-5,69299244a99d9e200d04a72a,participant,hcpib6bxmij8xe8n,,,,,,,"[Inside “Fanciful Frocks” dress shop. Racks of clothes everywhere. Erin, Clare, Michelle, James, Orla, and Mae are browsing.]<br> Erin: (holding up a pink dress) Look at this one! Mam, this dress is absolutely mine. It screams ME.<br> Mae: It’s very… pink. Like candy floss pink. Are you sure?<br> Clare: It's cute on you, Erin. But maybe a bit too candy-flossy?<br> James: Pink’s good. Shows you mean business—or bubblegum. Depends.<br> Michelle: Erin, you’ll turn heads in that. I like it.<br> Orla: (holding two hangers) What about this purple-and-orange jumpsuit versus the blue one here? I can’t pick.<br> Erin: Go with what makes you feel like Orla, not like a rainbow vomited on you.<br> Orla: Hey! Rainbow vomit is very in this season… maybe.<br> Mae: The blue one is classy. The jumpsuit is loud. You’re loud already.<br> Clare: True. But loud can be lovely. Depends on how you carry it.<br> Michelle: (to Orla) Try them both on, see which feels better.<br> James: And whichever gets fewer comments from aunties at Mass, that’s the one.<br> Orla: (smiling) Okay, Blue first. Then the jumpsuit. I need them both anyway.<br> Erin: (twirls in pink dress) See? Pink is perfection.<br> Mae: Erin, slow down or you'll spin yourself dizzy.<br> Clare: Let’s guess how many people you’ll make jealous in that dress.<br> Michelle: I vote seven. Seven jealous people.<br> James: Minimum. At least half of the school.<br> Orla: (coming out in blue dress) What about this?<br> Erin: Oh, Orla, you look stunning. The blue suits you more than the rainbow wake-up call.<br> Michelle: Yes! That one’s a winner.<br> Orla: (grins) Dress one blue it is. But maybe I’m coming back for the jumpsuit. Just in case.<br>",false,"[In a dress shop.]<br> (James is holding dresses and almost falling asleep. Erin walks out of the changing room in a skin-tight blue dress.)<br> Erin: What do you think of this one?<br> Michelle: I dunno. I'm not sure it's you, really.<br> Erin: (struggling to walk) Good. I don't want to be me.<br> Clare: (holding up a blue dress and a pink dress) Which of these do you like best?<br> Erin: Definitely the pink.<br> Mae: Has to be the blue.<br> Clare: (looking at Erin spitefully) Yeah, I thought the blue.<br> Michelle: (trying on a dress) This doesn't do my baps any justice.<br> Clare: Have you decided who you're bringing yet?<br> Michelle: Well I've narrowed it down to two. There's big Johnny Kells who works in Dunnes. Thick as fuck, but a massive, massive ride. Then there's this other fella, he's not as thick, but he's also not as hot, although I have heard he is really good with his hands. And when I say he's good with his hands, I'm not talking about putting up shelves, girls. I'm talking about...<br> James: (bored) Everybody knows what you're talking about, Michelle.<br> Michelle: Fingering. (looking smug)<br> James: Honestly!<br> Mae: I can't find anything I like.<br> Orla: (from the changing room) Well, I'm just so torn. I mean, I love my Easter dress, but this is cracker too.<br> (Orla jumps out of the changing room in a purple and orange jumpsuit.)<br> Orla: There is just nothing that doesn't suit me.<br>",right,keypress(d),,,,,,,,,,,,,,
,,interval,canvas.Screen,4_7_1,response,959.1000000014901,39638595.599999994,39638594.248,39638610.9,39639570,39639575.39999999,2025-11-29T07:38:16.873Z,39639594.2,UXfuQC_Hvq,full,manuscript-study-5,69299244a99d9e200d04a72a,participant,hcpib6bxmij8xe8n,,,,,,,"[Inside “Fanciful Frocks” dress shop. Racks of clothes everywhere. Erin, Clare, Michelle, James, Orla, and Mae are browsing.]<br> Erin: (holding up a pink dress) Look at this one! Mam, this dress is absolutely mine. It screams ME.<br> Mae: It’s very… pink. Like candy floss pink. Are you sure?<br> Clare: It's cute on you, Erin. But maybe a bit too candy-flossy?<br> James: Pink’s good. Shows you mean business—or bubblegum. Depends.<br> Michelle: Erin, you’ll turn heads in that. I like it.<br> Orla: (holding two hangers) What about this purple-and-orange jumpsuit versus the blue one here? I can’t pick.<br> Erin: Go with what makes you feel like Orla, not like a rainbow vomited on you.<br> Orla: Hey! Rainbow vomit is very in this season… maybe.<br> Mae: The blue one is classy. The jumpsuit is loud. You’re loud already.<br> Clare: True. But loud can be lovely. Depends on how you carry it.<br> Michelle: (to Orla) Try them both on, see which feels better.<br> James: And whichever gets fewer comments from aunties at Mass, that’s the one.<br> Orla: (smiling) Okay, Blue first. Then the jumpsuit. I need them both anyway.<br> Erin: (twirls in pink dress) See? Pink is perfection.<br> Mae: Erin, slow down or you'll spin yourself dizzy.<br> Clare: Let’s guess how many people you’ll make jealous in that dress.<br> Michelle: I vote seven. Seven jealous people.<br> James: Minimum. At least half of the school.<br> Orla: (coming out in blue dress) What about this?<br> Erin: Oh, Orla, you look stunning. The blue suits you more than the rainbow wake-up call.<br> Michelle: Yes! That one’s a winner.<br> Orla: (grins) Dress one blue it is. But maybe I’m coming back for the jumpsuit. Just in case.<br>",,"[In a dress shop.]<br> (James is holding dresses and almost falling asleep. Erin walks out of the changing room in a skin-tight blue dress.)<br> Erin: What do you think of this one?<br> Michelle: I dunno. I'm not sure it's you, really.<br> Erin: (struggling to walk) Good. I don't want to be me.<br> Clare: (holding up a blue dress and a pink dress) Which of these do you like best?<br> Erin: Definitely the pink.<br> Mae: Has to be the blue.<br> Clare: (looking at Erin spitefully) Yeah, I thought the blue.<br> Michelle: (trying on a dress) This doesn't do my baps any justice.<br> Clare: Have you decided who you're bringing yet?<br> Michelle: Well I've narrowed it down to two. There's big Johnny Kells who works in Dunnes. Thick as fuck, but a massive, massive ride. Then there's this other fella, he's not as thick, but he's also not as hot, although I have heard he is really good with his hands. And when I say he's good with his hands, I'm not talking about putting up shelves, girls. I'm talking about...<br> James: (bored) Everybody knows what you're talking about, Michelle.<br> Michelle: Fingering. (looking smug)<br> James: Honestly!<br> Mae: I can't find anything I like.<br> Orla: (from the changing room) Well, I'm just so torn. I mean, I love my Easter dress, but this is cracker too.<br> (Orla jumps out of the changing room in a purple and orange jumpsuit.)<br> Orla: There is just nothing that doesn't suit me.<br>",,keypress,,,,,,,,,,,,,,
,,trial,flow.Sequence,4_7,completion,57660.29999999702,39581886.5,39581876.436,39581909.7,39639570,39639575.599999994,2025-11-29T07:38:16.873Z,39639594.2,UXfuQC_Hvq,full,manuscript-study-5,69299244a99d9e200d04a72a,participant,hcpib6bxmij8xe8n,,,,,,,"[Inside “Fanciful Frocks” dress shop. Racks of clothes everywhere. Erin, Clare, Michelle, James, Orla, and Mae are browsing.]<br> Erin: (holding up a pink dress) Look at this one! Mam, this dress is absolutely mine. It screams ME.<br> Mae: It’s very… pink. Like candy floss pink. Are you sure?<br> Clare: It's cute on you, Erin. But maybe a bit too candy-flossy?<br> James: Pink’s good. Shows you mean business—or bubblegum. Depends.<br> Michelle: Erin, you’ll turn heads in that. I like it.<br> Orla: (holding two hangers) What about this purple-and-orange jumpsuit versus the blue one here? I can’t pick.<br> Erin: Go with what makes you feel like Orla, not like a rainbow vomited on you.<br> Orla: Hey! Rainbow vomit is very in this season… maybe.<br> Mae: The blue one is classy. The jumpsuit is loud. You’re loud already.<br> Clare: True. But loud can be lovely. Depends on how you carry it.<br> Michelle: (to Orla) Try them both on, see which feels better.<br> James: And whichever gets fewer comments from aunties at Mass, that’s the one.<br> Orla: (smiling) Okay, Blue first. Then the jumpsuit. I need them both anyway.<br> Erin: (twirls in pink dress) See? Pink is perfection.<br> Mae: Erin, slow down or you'll spin yourself dizzy.<br> Clare: Let’s guess how many people you’ll make jealous in that dress.<br> Michelle: I vote seven. Seven jealous people.<br> James: Minimum. At least half of the school.<br> Orla: (coming out in blue dress) What about this?<br> Erin: Oh, Orla, you look stunning. The blue suits you more than the rainbow wake-up call.<br> Michelle: Yes! That one’s a winner.<br> Orla: (grins) Dress one blue it is. But maybe I’m coming back for the jumpsuit. Just in case.<br>",,"[In a dress shop.]<br> (James is holding dresses and almost falling asleep. Erin walks out of the changing room in a skin-tight blue dress.)<br> Erin: What do you think of this one?<br> Michelle: I dunno. I'm not sure it's you, really.<br> Erin: (struggling to walk) Good. I don't want to be me.<br> Clare: (holding up a blue dress and a pink dress) Which of these do you like best?<br> Erin: Definitely the pink.<br> Mae: Has to be the blue.<br> Clare: (looking at Erin spitefully) Yeah, I thought the blue.<br> Michelle: (trying on a dress) This doesn't do my baps any justice.<br> Clare: Have you decided who you're bringing yet?<br> Michelle: Well I've narrowed it down to two. There's big Johnny Kells who works in Dunnes. Thick as fuck, but a massive, massive ride. Then there's this other fella, he's not as thick, but he's also not as hot, although I have heard he is really good with his hands. And when I say he's good with his hands, I'm not talking about putting up shelves, girls. I'm talking about...<br> James: (bored) Everybody knows what you're talking about, Michelle.<br> Michelle: Fingering. (looking smug)<br> James: Honestly!<br> Mae: I can't find anything I like.<br> Orla: (from the changing room) Well, I'm just so torn. I mean, I love my Easter dress, but this is cracker too.<br> (Orla jumps out of the changing room in a purple and orange jumpsuit.)<br> Orla: There is just nothing that doesn't suit me.<br>",,,,,,,,,,,,,,,,
,,Loop,flow.Loop,4,completion,39587555.06,52016,52014.94,52014.94,39639570,39639575.69999999,2025-11-29T07:38:16.873Z,39639594.2,UXfuQC_Hvq,full,manuscript-study-5,69299244a99d9e200d04a72a,participant,hcpib6bxmij8xe8n,,,,,,,,,,,,,,,,,,,,,,,,,
,,Post task,html.Page,5,form submission,3685.5999999940395,39639575.8,39639577.528,39639594.2,39643279.8,39643280.19999999,2025-11-29T07:38:20.577Z,39643311.086,UXfuQC_Hvq,full,manuscript-study-5,69299244a99d9e200d04a72a,participant,hcpib6bxmij8xe8n,,,,,,,,,,,,,,,,,,,,,,,,,
,,Post task questionaire,html.Page,6,form submission,42432.2139999941,39643280.3,39643311.086,39643311.086,39685743.3,39685743.599999994,2025-11-29T07:39:03.040Z,39685745.294,UXfuQC_Hvq,full,manuscript-study-5,69299244a99d9e200d04a72a,participant,hcpib6bxmij8xe8n,,,,,,,,,,,,70,,,,,,,,,,,,,
,,Post task questionaire,html.Page,7,form submission,77549.90599998832,39685743.8,39685745.294,39685745.294,39763295.19999999,39763295.69999999,2025-11-29T07:40:20.590Z,39763313.5,UXfuQC_Hvq,full,manuscript-study-5,69299244a99d9e200d04a72a,participant,hcpib6bxmij8xe8n,,,,,,,,,,,,,80,100,100,70,95,93,88,27,100,36,100,100,67
,,End,canvas.Screen,8,timeout,499.79999999701977,39763295.89999999,39763296.888,39763313.5,39763796.8,39763798.39999999,2025-11-29T07:40:21.092Z,39763813.3,UXfuQC_Hvq,full,manuscript-study-5,69299244a99d9e200d04a72a,participant,hcpib6bxmij8xe8n,,,,,,,,,,,,,,,,,,,,,,,,,
,,root,flow.Sequence,,completion,39762649.599999994,1130.0999999940395,1130.6,1147.2,39763796.8,39763799.099999994,2025-11-29T07:40:21.093Z,39763813.3,UXfuQC_Hvq,full,manuscript-study-5,69299244a99d9e200d04a72a,participant,hcpib6bxmij8xe8n,,,,,,,,,,,,,,,,,,,,,,,,,
url,meta,sender,sender_type,sender_id,ended_on,duration,time_run,time_render,time_show,time_end,time_commit,timestamp,time_switch,openLabId,type,task,project,status,code,confirmationCode,age,gender,english,education,country,textLLM,switch,textHuman,response,response_action,,creative_humor,accept_plot,negative_diversity,original_human,accept_dialogue,creative_story,creative_characters,negative_audience,accept_edit,better_llm,negative_writers,accept_script,diminish_originality,competency,attitude,impact
,"{""labjs_version"":""20.2.4"",""labjs_build"":{""flavor"":""production"",""commit"":""f5b4a49f956347addd546a832a3327688c2c0fef""},""location"":""https://open-lab.online/test/the-manuscript-study/692b209fa99d9e200d04adbb"",""userAgent"":""Mozilla/5.0 (Macintosh; Intel Mac OS X 10_15_7) AppleWebKit/537.36 (KHTML, like Gecko) Chrome/142.0.0.0 Safari/537.36"",""platform"":""MacIntel"",""language"":""da-DK"",""locale"":""en-GB"",""timeZone"":""Europe/Copenhagen"",""timezoneOffset"":-60,""screen_width"":1440,""screen_height"":900,""scroll_width"":1440,""scroll_height"":852,""window_innerWidth"":1440,""window_innerHeight"":900,""devicePixelRatio"":2}",Welcome,html.Page,0,form submission,20692.1,730,732.632,733.4,21425.5,21426.599999999627,2025-11-29T16:35:00.235Z,21449.5,QU6RRpzbf9,full,the-manuscript-study,69299244a99d9e200d04a72a,participant,hcpib6bxmikicoga,703678,,,,,,,,,,,,,,,,,,,,,,,,,,,
,,Personal information,html.Page,1,form submission,32380.599999999627,21426.800000000745,21433.052,21449.5,53830.09999999963,53830.40000000037,2025-11-29T16:35:32.639Z,53848.6,QU6RRpzbf9,full,the-manuscript-study,69299244a99d9e200d04a72a,participant,hcpib6bxmikicoga,,22,male,yes,highschool,denmark,,,,,,,,,,,,,,,,,,,,,,
,,"Derry Girls check ",html.Page,2,form submission,12189.200000000747,53830.59999999963,53832.926,53848.6,66037.80000000075,66038,2025-11-29T16:35:44.846Z,66065.1,QU6RRpzbf9,full,the-manuscript-study,69299244a99d9e200d04a72a,participant,hcpib6bxmikicoga,,,,,,,,,,,,,,,,,,,,,,,,,,,,
,,Explanation Text,html.Page,3,form submission,23595.399999999994,66038.30000000075,66032.794,66065.1,89660.5,89660.90000000037,2025-11-29T16:36:08.469Z,89682,QU6RRpzbf9,full,the-manuscript-study,69299244a99d9e200d04a72a,participant,hcpib6bxmikicoga,,,,,,,,,,,,,,,,,,,,,,,,,,,,
,,Showing scenes,html.Page,4_0_0,response,179037.30000000075,89661.09999999963,89664.892,89682,268719.30000000075,268724.5999999996,2025-11-29T16:39:07.574Z,268745.7,QU6RRpzbf9,full,the-manuscript-study,69299244a99d9e200d04a72a,participant,hcpib6bxmikicoga,,,,,,,"[In Erin’s bedroom. Erin is putting on a dress. Orla is doing her hair. Clare peeks in.]<br> Clare: Erin, you really think you should wear *that* to a boy’s party?<br> Erin: Better than looking like a blowfish, Clare. (frowns at her dress in the mirror)<br> James: (from the doorway) Confidence, Erin! Be bold like a hawk, not stiff like a blowfish.<br> Orla: Ew, James. Nobody wants to be a blowfish.<br> Erin: I’m not sure I want to go, though. A boy’s party sounds… weird.<br> Michelle: Weird? Erin, boy’s party = opportunity. Opportunity to be *sexy*. (strikes a pose)<br> Erin: Sexy? Mum, I’m thirteen. If I try to be sexy, I'll look ridiculous.<br> Michelle: Ridiculous sells, sweetheart. Sometimes ridiculous is the look.<br> Clare: Look, just be yourself. Unless you’re a blowfish. Then pick a look.<br> Orla: And if you're going to be sexy, wear red. Red distracts the eye from bad dancing.<br> James: (rolls his eyes) Are we styling Erin or sending her to battle?<br> Erin: I just don’t want to regret it later. What if I spill something everywhere?<br> Michelle: Spill? Then you’ll clean it up, or someone else will.<br> Jon: (knocks and enters) Hey, girls. You're all ready?<br> Erin: I think so. Or I’m somewhere between sexy and sensible.<br> Jon: That’s perfect. No one notices sensible anyway, Erin. Go with the sexy.<br> James: See? Jon gets it. Confidence, eye contact, smile. Not blowfish.<br> Erin: (sighs) Fine. Eye contact. Smile. And maybe red lips.<br> Orla: Don’t let any boys see your diary tonight either. That’s reserved for your enemies.<br> Clare: Enemy? Who needs enemies when you’ve got siblings?<br> James: Erin, promise me one thing—you’ll dance even if it feels silly.<br> Erin: Promise. (takes a deep breath, fixes her dress) Let’s go make a memory, not a mannequin.<br> Michelle: That’s my girl. Now—smart phone... red lips... strut out that door!",false,"[Night time. Michelle, Erin, Clare, James and Orla sneak out of their room in their pyjamas.]<br> ERIN: I'm not sure about this.<br> MICHELLE: I knew you'd fanny out!<br> ERIN: These lads have moves. You said so yourself, Michelle. And I haven't got any moves!<br> (They walk up the stairs.)<br> MICHELLE: Look, let's just get in there, have a few drinks, and just loosen up a bit.<br> CLARE: No! No loosening up! I don't like it!<br> JAMES: Just be confident, Erin. Boys like that.<br> MICHELLE: How the fuck would you know what boys like?<br> JAMES: Cause I'm a boy, Michelle. I'm a real live boy.<br> ORLA: Aw, yeah, like Pinocchio.<br> (They reach the boys' door.)<br> MICHELLE: (touching Erin's hair) Listen be sexy, okay?<br> ERIN: Sexy, right.<br> (Erin leans against the wall and pouts.)<br> MICHELLE: I said be sexy, not be a fucking blowfish, Erin.<br> (Erin looks offended and tries to be sexy again. Michelle knocks.)<br> (Jon opens the door, looking confused.)<br> JAMES: Hello, mate.<br> MICHELLE: We heard you boys are having a party.<br> JON: No?<br> MICHELLE: Well yous are now.<br> (They all walk into the room. Orla stares at Jon close to his face. He looks scared.)<br>",right,keypress(d),,,,,,,,,,,,,,,,,
,,interval,canvas.Screen,4_0_1,response,1915.3999999996158,268724.9000000004,268729.818,268745.7,270661.0999999996,270666,2025-11-29T16:39:09.515Z,270696.6,QU6RRpzbf9,full,the-manuscript-study,69299244a99d9e200d04a72a,participant,hcpib6bxmikicoga,,,,,,,"[In Erin’s bedroom. Erin is putting on a dress. Orla is doing her hair. Clare peeks in.]<br> Clare: Erin, you really think you should wear *that* to a boy’s party?<br> Erin: Better than looking like a blowfish, Clare. (frowns at her dress in the mirror)<br> James: (from the doorway) Confidence, Erin! Be bold like a hawk, not stiff like a blowfish.<br> Orla: Ew, James. Nobody wants to be a blowfish.<br> Erin: I’m not sure I want to go, though. A boy’s party sounds… weird.<br> Michelle: Weird? Erin, boy’s party = opportunity. Opportunity to be *sexy*. (strikes a pose)<br> Erin: Sexy? Mum, I’m thirteen. If I try to be sexy, I'll look ridiculous.<br> Michelle: Ridiculous sells, sweetheart. Sometimes ridiculous is the look.<br> Clare: Look, just be yourself. Unless you’re a blowfish. Then pick a look.<br> Orla: And if you're going to be sexy, wear red. Red distracts the eye from bad dancing.<br> James: (rolls his eyes) Are we styling Erin or sending her to battle?<br> Erin: I just don’t want to regret it later. What if I spill something everywhere?<br> Michelle: Spill? Then you’ll clean it up, or someone else will.<br> Jon: (knocks and enters) Hey, girls. You're all ready?<br> Erin: I think so. Or I’m somewhere between sexy and sensible.<br> Jon: That’s perfect. No one notices sensible anyway, Erin. Go with the sexy.<br> James: See? Jon gets it. Confidence, eye contact, smile. Not blowfish.<br> Erin: (sighs) Fine. Eye contact. Smile. And maybe red lips.<br> Orla: Don’t let any boys see your diary tonight either. That’s reserved for your enemies.<br> Clare: Enemy? Who needs enemies when you’ve got siblings?<br> James: Erin, promise me one thing—you’ll dance even if it feels silly.<br> Erin: Promise. (takes a deep breath, fixes her dress) Let’s go make a memory, not a mannequin.<br> Michelle: That’s my girl. Now—smart phone... red lips... strut out that door!",,"[Night time. Michelle, Erin, Clare, James and Orla sneak out of their room in their pyjamas.]<br> ERIN: I'm not sure about this.<br> MICHELLE: I knew you'd fanny out!<br> ERIN: These lads have moves. You said so yourself, Michelle. And I haven't got any moves!<br> (They walk up the stairs.)<br> MICHELLE: Look, let's just get in there, have a few drinks, and just loosen up a bit.<br> CLARE: No! No loosening up! I don't like it!<br> JAMES: Just be confident, Erin. Boys like that.<br> MICHELLE: How the fuck would you know what boys like?<br> JAMES: Cause I'm a boy, Michelle. I'm a real live boy.<br> ORLA: Aw, yeah, like Pinocchio.<br> (They reach the boys' door.)<br> MICHELLE: (touching Erin's hair) Listen be sexy, okay?<br> ERIN: Sexy, right.<br> (Erin leans against the wall and pouts.)<br> MICHELLE: I said be sexy, not be a fucking blowfish, Erin.<br> (Erin looks offended and tries to be sexy again. Michelle knocks.)<br> (Jon opens the door, looking confused.)<br> JAMES: Hello, mate.<br> MICHELLE: We heard you boys are having a party.<br> JON: No?<br> MICHELLE: Well yous are now.<br> (They all walk into the room. Orla stares at Jon close to his face. He looks scared.)<br>",,keypress,,,,,,,,,,,,,,,,,
,,trial,flow.Sequence,4_0,completion,180979.09999999963,89661,89664.892,89682,270661.0999999996,270666.5,2025-11-29T16:39:09.516Z,270696.6,QU6RRpzbf9,full,the-manuscript-study,69299244a99d9e200d04a72a,participant,hcpib6bxmikicoga,,,,,,,"[In Erin’s bedroom. Erin is putting on a dress. Orla is doing her hair. Clare peeks in.]<br> Clare: Erin, you really think you should wear *that* to a boy’s party?<br> Erin: Better than looking like a blowfish, Clare. (frowns at her dress in the mirror)<br> James: (from the doorway) Confidence, Erin! Be bold like a hawk, not stiff like a blowfish.<br> Orla: Ew, James. Nobody wants to be a blowfish.<br> Erin: I’m not sure I want to go, though. A boy’s party sounds… weird.<br> Michelle: Weird? Erin, boy’s party = opportunity. Opportunity to be *sexy*. (strikes a pose)<br> Erin: Sexy? Mum, I’m thirteen. If I try to be sexy, I'll look ridiculous.<br> Michelle: Ridiculous sells, sweetheart. Sometimes ridiculous is the look.<br> Clare: Look, just be yourself. Unless you’re a blowfish. Then pick a look.<br> Orla: And if you're going to be sexy, wear red. Red distracts the eye from bad dancing.<br> James: (rolls his eyes) Are we styling Erin or sending her to battle?<br> Erin: I just don’t want to regret it later. What if I spill something everywhere?<br> Michelle: Spill? Then you’ll clean it up, or someone else will.<br> Jon: (knocks and enters) Hey, girls. You're all ready?<br> Erin: I think so. Or I’m somewhere between sexy and sensible.<br> Jon: That’s perfect. No one notices sensible anyway, Erin. Go with the sexy.<br> James: See? Jon gets it. Confidence, eye contact, smile. Not blowfish.<br> Erin: (sighs) Fine. Eye contact. Smile. And maybe red lips.<br> Orla: Don’t let any boys see your diary tonight either. That’s reserved for your enemies.<br> Clare: Enemy? Who needs enemies when you’ve got siblings?<br> James: Erin, promise me one thing—you’ll dance even if it feels silly.<br> Erin: Promise. (takes a deep breath, fixes her dress) Let’s go make a memory, not a mannequin.<br> Michelle: That’s my girl. Now—smart phone... red lips... strut out that door!",,"[Night time. Michelle, Erin, Clare, James and Orla sneak out of their room in their pyjamas.]<br> ERIN: I'm not sure about this.<br> MICHELLE: I knew you'd fanny out!<br> ERIN: These lads have moves. You said so yourself, Michelle. And I haven't got any moves!<br> (They walk up the stairs.)<br> MICHELLE: Look, let's just get in there, have a few drinks, and just loosen up a bit.<br> CLARE: No! No loosening up! I don't like it!<br> JAMES: Just be confident, Erin. Boys like that.<br> MICHELLE: How the fuck would you know what boys like?<br> JAMES: Cause I'm a boy, Michelle. I'm a real live boy.<br> ORLA: Aw, yeah, like Pinocchio.<br> (They reach the boys' door.)<br> MICHELLE: (touching Erin's hair) Listen be sexy, okay?<br> ERIN: Sexy, right.<br> (Erin leans against the wall and pouts.)<br> MICHELLE: I said be sexy, not be a fucking blowfish, Erin.<br> (Erin looks offended and tries to be sexy again. Michelle knocks.)<br> (Jon opens the door, looking confused.)<br> JAMES: Hello, mate.<br> MICHELLE: We heard you boys are having a party.<br> JON: No?<br> MICHELLE: Well yous are now.<br> (They all walk into the room. Orla stares at Jon close to his face. He looks scared.)<br>",,,,,,,,,,,,,,,,,,,
,,Showing scenes,html.Page,4_1_0,response,189450.10000000114,270666.80000000075,270663.2,270696.6,460146.7000000011,460151.9000000004,2025-11-29T16:42:19.008Z,460176.5,QU6RRpzbf9,full,the-manuscript-study,69299244a99d9e200d04a72a,participant,hcpib6bxmikicoga,,,,,,,"[In the Quinn living room. Mary is ironing Erin’s uniform. Orla is reading a parish bulletin.]<br> Mary: Erin, you’d best hurry—Mass starts in fifteen. Have you seen Bill?<br> Erin: Bill? He’s been gone all morning. I reckon he’s headed to chapel already.<br> Orla: (looking up) I heard something on the radio. The Clintons might be in Burt.<br> Mary: Saints preserve us. The Clintons in Burt is bad enough—what are they after now?<br> (Bill enters, looking bewildered. A taxi driver’s cap in hand.)<br> Erin: Where’ve you been? We thought you’d left for Mass.<br> Bill: I was picked up—Taxi from Burt. Dispatcher said they needed me at chapel.<br> Mary: What do you mean “they needed you”? For what part of the service?<br> Bill: I’m supposed to read a passage. Some request from the parish—they said they sent for someone dependable.<br> Orla: (sniffs) Dependable? More like someone handy to hang onto when the Clintons roll in.<br> Mary: Well, if the Clintons are coming, we’ll need to be on our best behaviour.<br> Bill: The dispatcher seemed nervous. Kept mentioning “feeling the air stiff” in Burt.<br> Erin: Air stiff? Sounds like trouble brewing—politics or otherwise.<br> Mary: Don’t you go mixing politics with the holy, Erin. Mass isn’t the place.<br> Orla: Yet they drag us into it all the same—crossfire comes in many garments.<br> Bill: Whatever they want, I’ll read the passage as asked. God alone knows my heart’s in the right place.<br> (They exit together toward the chapel. Mary murmurs nervously.)<br> Mary: May it be good, not scandalous.<br>",false,"[In the taxi rank.]<br> Granda Joe: Excuse me, son.<br> Man: Where to?<br> Granda Joe: We were just wondering, have you seen the Clintons knocking about around here?<br> Man: The Clintons?<br> Jim: We have reason to believe they're staying in this vicinity.<br> Man: What would the Clintons be doing in Burt?<br> (A man walks in.)<br> Man: Heading to the chapel, Bill?<br> Bill: Aye.<br> Man: (into mic) Anybody free to pick up Bill from base? Over. Anybody near base at all? Over.<br> Over radio: All right, back in five.<br> Man: Five minutes, Bill.<br> Bill: (nodding and smiling) Good.<br> Gerry: Now, Jim, would you be open to the following possibility at all, that it may not have been a CIA agent you were picking up on that transmitter of yours. That there is in fact a good chance it was a taxi dispatcher from Burt, ordering a car here to bring Bill to mass?<br> Jim: He did have a strong Donegal accent, now that you mention it.<br> Granda Joe: Jesus, Jim!",right,keypress(d),,,,,,,,,,,,,,,,,
,,interval,canvas.Screen,4_1_1,response,1193.0999999996275,460152.0999999996,460143.754,460176.5,461369.5999999996,461374.5,2025-11-29T16:42:20.230Z,461393,QU6RRpzbf9,full,the-manuscript-study,69299244a99d9e200d04a72a,participant,hcpib6bxmikicoga,,,,,,,"[In the Quinn living room. Mary is ironing Erin’s uniform. Orla is reading a parish bulletin.]<br> Mary: Erin, you’d best hurry—Mass starts in fifteen. Have you seen Bill?<br> Erin: Bill? He’s been gone all morning. I reckon he’s headed to chapel already.<br> Orla: (looking up) I heard something on the radio. The Clintons might be in Burt.<br> Mary: Saints preserve us. The Clintons in Burt is bad enough—what are they after now?<br> (Bill enters, looking bewildered. A taxi driver’s cap in hand.)<br> Erin: Where’ve you been? We thought you’d left for Mass.<br> Bill: I was picked up—Taxi from Burt. Dispatcher said they needed me at chapel.<br> Mary: What do you mean “they needed you”? For what part of the service?<br> Bill: I’m supposed to read a passage. Some request from the parish—they said they sent for someone dependable.<br> Orla: (sniffs) Dependable? More like someone handy to hang onto when the Clintons roll in.<br> Mary: Well, if the Clintons are coming, we’ll need to be on our best behaviour.<br> Bill: The dispatcher seemed nervous. Kept mentioning “feeling the air stiff” in Burt.<br> Erin: Air stiff? Sounds like trouble brewing—politics or otherwise.<br> Mary: Don’t you go mixing politics with the holy, Erin. Mass isn’t the place.<br> Orla: Yet they drag us into it all the same—crossfire comes in many garments.<br> Bill: Whatever they want, I’ll read the passage as asked. God alone knows my heart’s in the right place.<br> (They exit together toward the chapel. Mary murmurs nervously.)<br> Mary: May it be good, not scandalous.<br>",,"[In the taxi rank.]<br> Granda Joe: Excuse me, son.<br> Man: Where to?<br> Granda Joe: We were just wondering, have you seen the Clintons knocking about around here?<br> Man: The Clintons?<br> Jim: We have reason to believe they're staying in this vicinity.<br> Man: What would the Clintons be doing in Burt?<br> (A man walks in.)<br> Man: Heading to the chapel, Bill?<br> Bill: Aye.<br> Man: (into mic) Anybody free to pick up Bill from base? Over. Anybody near base at all? Over.<br> Over radio: All right, back in five.<br> Man: Five minutes, Bill.<br> Bill: (nodding and smiling) Good.<br> Gerry: Now, Jim, would you be open to the following possibility at all, that it may not have been a CIA agent you were picking up on that transmitter of yours. That there is in fact a good chance it was a taxi dispatcher from Burt, ordering a car here to bring Bill to mass?<br> Jim: He did have a strong Donegal accent, now that you mention it.<br> Granda Joe: Jesus, Jim!",,keypress,,,,,,,,,,,,,,,,,
